"","build","computer.platform","time","subject","blockcode","blocknum","trialcode","trialnum","stimulusitem1","stimulusitem2","stimulusitem3","response","latency"
"1","5.0.7.0","win","17:48:59",4,"HCPrac",2,"likert_prac_hc",1,"white_background_prac_hc","+","scenes/hot_cold_prac01.jpg","3",3535
"2","5.0.7.0","win","17:48:59",4,"HCPrac",2,"likert_prac_hc",2,"white_background_prac_hc","+","scenes/hot_cold_prac02.jpg","1",1373
"3","5.0.7.0","win","17:48:59",4,"HCPrac",2,"likert_prac_hc",3,"white_background_prac_hc","+","scenes/hot_cold_prac03.jpg","4",4792
"4","5.0.7.0","win","17:48:59",4,"HCPrac",2,"likert_prac_hc",4,"white_background_prac_hc","+","scenes/hot_cold_prac04.jpg","1",2292
"5","5.0.7.0","win","17:48:59",4,"HC",3,"beginning_B1_hc_trial",1,"images/block1_inst.png","0","0","57",3366
"6","5.0.7.0","win","17:48:59",4,"HC",3,"reminder_hc_trial",2,"images/hot_cold_scale_reminder.jpg","0","0","57",9075
"7","5.0.7.0","win","17:48:59",4,"HC",3,"likert_hc",3,"white_background_main_hc","+","scenes/beach_130.jpg","2",2462
"8","5.0.7.0","win","17:48:59",4,"HC",3,"likert_hc",4,"white_background_main_hc","+","scenes/beach_077.jpg","3",1767
"9","5.0.7.0","win","17:48:59",4,"HC",3,"likert_hc",5,"white_background_main_hc","+","scenes/station_030.jpg","3",1547
"10","5.0.7.0","win","17:48:59",4,"HC",3,"likert_hc",6,"white_background_main_hc","+","scenes/beach_080.jpg","1",2745
"11","5.0.7.0","win","17:48:59",4,"HC",3,"likert_hc",7,"white_background_main_hc","+","scenes/beach_133.jpg","3",2390
"12","5.0.7.0","win","17:48:59",4,"HC",3,"likert_hc",8,"white_background_main_hc","+","scenes/forest_015.jpg","3",1169
"13","5.0.7.0","win","17:48:59",4,"HC",3,"likert_hc",9,"white_background_main_hc","+","scenes/city_019.jpg","3",1910
"14","5.0.7.0","win","17:48:59",4,"HC",3,"likert_hc",10,"white_background_main_hc","+","scenes/beach_049.jpg","1",1173
"15","5.0.7.0","win","17:48:59",4,"HC",3,"likert_hc",11,"white_background_main_hc","+","scenes/station_056.jpg","1",681
"16","5.0.7.0","win","17:48:59",4,"HC",3,"likert_hc",12,"white_background_main_hc","+","scenes/beach_132.jpg","3",921
"17","5.0.7.0","win","17:48:59",4,"HC",3,"likert_hc",13,"white_background_main_hc","+","scenes/station_010.jpg","3",1368
"18","5.0.7.0","win","17:48:59",4,"HC",3,"likert_hc",14,"white_background_main_hc","+","scenes/station_108.jpg","2",1412
"19","5.0.7.0","win","17:48:59",4,"HC",3,"likert_hc",15,"white_background_main_hc","+","scenes/station_101.jpg","3",1575
"20","5.0.7.0","win","17:48:59",4,"HC",3,"likert_hc",16,"white_background_main_hc","+","scenes/beach_067.jpg","2",1051
"21","5.0.7.0","win","17:48:59",4,"HC",3,"likert_hc",17,"white_background_main_hc","+","scenes/forest_053.jpg","1",804
"22","5.0.7.0","win","17:48:59",4,"HC",3,"likert_hc",18,"white_background_main_hc","+","scenes/station_023.jpg","3",1495
"23","5.0.7.0","win","17:48:59",4,"HC",3,"likert_hc",19,"white_background_main_hc","+","scenes/forest_107.jpg","2",639
"24","5.0.7.0","win","17:48:59",4,"HC",3,"likert_hc",20,"white_background_main_hc","+","scenes/forest_072.jpg","1",776
"25","5.0.7.0","win","17:48:59",4,"HC",3,"likert_hc",21,"white_background_main_hc","+","scenes/beach_050.jpg","2",1420
"26","5.0.7.0","win","17:48:59",4,"HC",3,"likert_hc",22,"white_background_main_hc","+","scenes/station_029.jpg","3",1070
"27","5.0.7.0","win","17:48:59",4,"HC",3,"likert_hc",23,"white_background_main_hc","+","scenes/station_102.jpg","3",975
"28","5.0.7.0","win","17:48:59",4,"HC",3,"likert_hc",24,"white_background_main_hc","+","scenes/city_070.jpg","2",1083
"29","5.0.7.0","win","17:48:59",4,"HC",3,"likert_hc",25,"white_background_main_hc","+","scenes/city_025.jpg","3",2547
"30","5.0.7.0","win","17:48:59",4,"HC",3,"likert_hc",26,"white_background_main_hc","+","scenes/station_103.jpg","3",1016
"31","5.0.7.0","win","17:48:59",4,"HC",3,"likert_hc",27,"white_background_main_hc","+","scenes/station_062.jpg","2",779
"32","5.0.7.0","win","17:48:59",4,"HC",3,"likert_hc",28,"white_background_main_hc","+","scenes/forest_113.jpg","3",719
"33","5.0.7.0","win","17:48:59",4,"HC",3,"likert_hc",29,"white_background_main_hc","+","scenes/station_025.jpg","3",1381
"34","5.0.7.0","win","17:48:59",4,"HC",3,"likert_hc",30,"white_background_main_hc","+","scenes/station_034.jpg","1",831
"35","5.0.7.0","win","17:48:59",4,"HC",3,"likert_hc",31,"white_background_main_hc","+","scenes/city_102.jpg","2",915
"36","5.0.7.0","win","17:48:59",4,"HC",3,"likert_hc",32,"white_background_main_hc","+","scenes/beach_137.jpg","3",1682
"37","5.0.7.0","win","17:48:59",4,"HC",3,"likert_hc",33,"white_background_main_hc","+","scenes/station_072.jpg","1",890
"38","5.0.7.0","win","17:48:59",4,"HC",3,"likert_hc",34,"white_background_main_hc","+","scenes/city_023.jpg","3",938
"39","5.0.7.0","win","17:48:59",4,"HC",3,"beginning_B2_hc_trial",35,"images/block2_inst.jpg","0","0","57",4648
"40","5.0.7.0","win","17:48:59",4,"HC",3,"reminder_hc_trial",36,"images/hot_cold_scale_reminder.jpg","0","0","57",2651
"41","5.0.7.0","win","17:48:59",4,"HC",3,"likert_hc",37,"white_background_main_hc","+","scenes/station_113.jpg","1",1055
"42","5.0.7.0","win","17:48:59",4,"HC",3,"likert_hc",38,"white_background_main_hc","+","scenes/city_062.jpg","2",849
"43","5.0.7.0","win","17:48:59",4,"HC",3,"likert_hc",39,"white_background_main_hc","+","scenes/beach_044.jpg","5",4698
"44","5.0.7.0","win","17:48:59",4,"HC",3,"likert_hc",40,"white_background_main_hc","+","scenes/forest_118.jpg","3",937
"45","5.0.7.0","win","17:48:59",4,"HC",3,"likert_hc",41,"white_background_main_hc","+","scenes/forest_039.jpg","3",1510
"46","5.0.7.0","win","17:48:59",4,"HC",3,"likert_hc",42,"white_background_main_hc","+","scenes/city_029.jpg","3",1261
"47","5.0.7.0","win","17:48:59",4,"HC",3,"likert_hc",43,"white_background_main_hc","+","scenes/city_075.jpg","1",1006
"48","5.0.7.0","win","17:48:59",4,"HC",3,"likert_hc",44,"white_background_main_hc","+","scenes/beach_101.jpg","3",2177
"49","5.0.7.0","win","17:48:59",4,"HC",3,"likert_hc",45,"white_background_main_hc","+","scenes/city_063.jpg","1",846
"50","5.0.7.0","win","17:48:59",4,"HC",3,"likert_hc",46,"white_background_main_hc","+","scenes/beach_134.jpg","3",1399
"51","5.0.7.0","win","17:48:59",4,"HC",3,"likert_hc",47,"white_background_main_hc","+","scenes/forest_045.jpg","3",803
"52","5.0.7.0","win","17:48:59",4,"HC",3,"likert_hc",48,"white_background_main_hc","+","scenes/city_059.jpg","1",966
"53","5.0.7.0","win","17:48:59",4,"HC",3,"likert_hc",49,"white_background_main_hc","+","scenes/forest_014.jpg","3",1042
"54","5.0.7.0","win","17:48:59",4,"HC",3,"likert_hc",50,"white_background_main_hc","+","scenes/beach_131.jpg","3",1515
"55","5.0.7.0","win","17:48:59",4,"HC",3,"likert_hc",51,"white_background_main_hc","+","scenes/station_055.jpg","2",1002
"56","5.0.7.0","win","17:48:59",4,"HC",3,"likert_hc",52,"white_background_main_hc","+","scenes/beach_057.jpg","3",1829
"57","5.0.7.0","win","17:48:59",4,"HC",3,"likert_hc",53,"white_background_main_hc","+","scenes/forest_042.jpg","2",1991
"58","5.0.7.0","win","17:48:59",4,"HC",3,"likert_hc",54,"white_background_main_hc","+","scenes/forest_043.jpg","2",859
"59","5.0.7.0","win","17:48:59",4,"HC",3,"likert_hc",55,"white_background_main_hc","+","scenes/station_064.jpg","1",843
"60","5.0.7.0","win","17:48:59",4,"HC",3,"likert_hc",56,"white_background_main_hc","+","scenes/city_032.jpg","3",1493
"61","5.0.7.0","win","17:48:59",4,"HC",3,"likert_hc",57,"white_background_main_hc","+","scenes/forest_050.jpg","2",932
"62","5.0.7.0","win","17:48:59",4,"HC",3,"likert_hc",58,"white_background_main_hc","+","scenes/city_073.jpg","1",778
"63","5.0.7.0","win","17:48:59",4,"HC",3,"likert_hc",59,"white_background_main_hc","+","scenes/city_018.jpg","4",3070
"64","5.0.7.0","win","17:48:59",4,"HC",3,"likert_hc",60,"white_background_main_hc","+","scenes/forest_044.jpg","3",1055
"65","5.0.7.0","win","17:48:59",4,"HC",3,"likert_hc",61,"white_background_main_hc","+","scenes/forest_056.jpg","2",592
"66","5.0.7.0","win","17:48:59",4,"HC",3,"likert_hc",62,"white_background_main_hc","+","scenes/beach_002.jpg","3",1611
"67","5.0.7.0","win","17:48:59",4,"HC",3,"likert_hc",63,"white_background_main_hc","+","scenes/beach_051.jpg","2",3070
"68","5.0.7.0","win","17:48:59",4,"HC",3,"likert_hc",64,"white_background_main_hc","+","scenes/forest_031.jpg","3",983
"69","5.0.7.0","win","17:48:59",4,"HC",3,"likert_hc",65,"white_background_main_hc","+","scenes/city_016.jpg","3",1843
"70","5.0.7.0","win","17:48:59",4,"HC",3,"likert_hc",66,"white_background_main_hc","+","scenes/city_117.jpg","3",1020
"71","5.0.7.0","win","17:48:59",4,"HC",3,"likert_hc",67,"white_background_main_hc","+","scenes/city_020.jpg","4",2094
"72","5.0.7.0","win","17:48:59",4,"HC",3,"likert_hc",68,"white_background_main_hc","+","scenes/forest_102.jpg","2",1198
"73","5.0.7.0","win","17:48:59",4,"NQPrac",5,"likert_nq_prac",1,"white_background_prac_nq","+","scenes/noisy_quiet_prac01.jpg","4",1449
"74","5.0.7.0","win","17:48:59",4,"NQPrac",5,"likert_nq_prac",2,"white_background_prac_nq","+","scenes/noisy_quiet_prac02.jpg","1",1081
"75","5.0.7.0","win","17:48:59",4,"NQPrac",5,"likert_nq_prac",3,"white_background_prac_nq","+","scenes/noisy_quiet_prac03.jpg","2",1049
"76","5.0.7.0","win","17:48:59",4,"NQPrac",5,"likert_nq_prac",4,"white_background_prac_nq","+","scenes/noisy_quiet_prac04.jpg","3",1018
"77","5.0.7.0","win","17:48:59",4,"NQPrac",5,"likert_nq_prac",5,"white_background_prac_nq","+","scenes/noisy_quiet_prac05.jpg","2",1179
"78","5.0.7.0","win","17:48:59",4,"NQPrac",5,"likert_nq_prac",6,"white_background_prac_nq","+","scenes/noisy_quiet_prac06.jpg","2",808
"79","5.0.7.0","win","17:48:59",4,"NQ",6,"beginning_B1_nq_trial",1,"images/block1_inst.png","0","0","57",1822
"80","5.0.7.0","win","17:48:59",4,"NQ",6,"reminder_nq_trial",2,"images/noisy_quiet_scale_reminder_cut.jpg","Press enter to start the experiment","0","57",6969
"81","5.0.7.0","win","17:48:59",4,"NQ",6,"likert_nq",3,"white_background_main_nq","+","scenes/station_034.jpg","2",1464
"82","5.0.7.0","win","17:48:59",4,"NQ",6,"likert_nq",4,"white_background_main_nq","+","scenes/beach_080.jpg","2",681
"83","5.0.7.0","win","17:48:59",4,"NQ",6,"likert_nq",5,"white_background_main_nq","+","scenes/beach_067.jpg","1",1226
"84","5.0.7.0","win","17:48:59",4,"NQ",6,"likert_nq",6,"white_background_main_nq","+","scenes/forest_039.jpg","2",1140
"85","5.0.7.0","win","17:48:59",4,"NQ",6,"likert_nq",7,"white_background_main_nq","+","scenes/beach_044.jpg","3",562
"86","5.0.7.0","win","17:48:59",4,"NQ",6,"likert_nq",8,"white_background_main_nq","+","scenes/forest_014.jpg","3",983
"87","5.0.7.0","win","17:48:59",4,"NQ",6,"likert_nq",9,"white_background_main_nq","+","scenes/city_023.jpg","2",1107
"88","5.0.7.0","win","17:48:59",4,"NQ",6,"likert_nq",10,"white_background_main_nq","+","scenes/city_020.jpg","3",1610
"89","5.0.7.0","win","17:48:59",4,"NQ",6,"likert_nq",11,"white_background_main_nq","+","scenes/station_072.jpg","3",829
"90","5.0.7.0","win","17:48:59",4,"NQ",6,"likert_nq",12,"white_background_main_nq","+","scenes/forest_031.jpg","2",535
"91","5.0.7.0","win","17:48:59",4,"NQ",6,"likert_nq",13,"white_background_main_nq","+","scenes/city_018.jpg","3",1710
"92","5.0.7.0","win","17:48:59",4,"NQ",6,"likert_nq",14,"white_background_main_nq","+","scenes/forest_113.jpg","3",708
"93","5.0.7.0","win","17:48:59",4,"NQ",6,"likert_nq",15,"white_background_main_nq","+","scenes/station_056.jpg","2",883
"94","5.0.7.0","win","17:48:59",4,"NQ",6,"likert_nq",16,"white_background_main_nq","+","scenes/beach_101.jpg","2",451
"95","5.0.7.0","win","17:48:59",4,"NQ",6,"likert_nq",17,"white_background_main_nq","+","scenes/beach_050.jpg","2",644
"96","5.0.7.0","win","17:48:59",4,"NQ",6,"likert_nq",18,"white_background_main_nq","+","scenes/forest_042.jpg","2",550
"97","5.0.7.0","win","17:48:59",4,"NQ",6,"likert_nq",19,"white_background_main_nq","+","scenes/beach_132.jpg","1",732
"98","5.0.7.0","win","17:48:59",4,"NQ",6,"likert_nq",20,"white_background_main_nq","+","scenes/beach_051.jpg","2",562
"99","5.0.7.0","win","17:48:59",4,"NQ",6,"likert_nq",21,"white_background_main_nq","+","scenes/city_029.jpg","2",543
"100","5.0.7.0","win","17:48:59",4,"NQ",6,"likert_nq",22,"white_background_main_nq","+","scenes/city_063.jpg","4",1629
"101","5.0.7.0","win","17:48:59",4,"NQ",6,"likert_nq",23,"white_background_main_nq","+","scenes/city_032.jpg","3",1231
"102","5.0.7.0","win","17:48:59",4,"NQ",6,"likert_nq",24,"white_background_main_nq","+","scenes/forest_107.jpg","3",650
"103","5.0.7.0","win","17:48:59",4,"NQ",6,"likert_nq",25,"white_background_main_nq","+","scenes/station_102.jpg","2",963
"104","5.0.7.0","win","17:48:59",4,"NQ",6,"likert_nq",26,"white_background_main_nq","+","scenes/beach_131.jpg","2",728
"105","5.0.7.0","win","17:48:59",4,"NQ",6,"likert_nq",27,"white_background_main_nq","+","scenes/station_023.jpg","2",686
"106","5.0.7.0","win","17:48:59",4,"NQ",6,"likert_nq",28,"white_background_main_nq","+","scenes/beach_057.jpg","3",798
"107","5.0.7.0","win","17:48:59",4,"NQ",6,"likert_nq",29,"white_background_main_nq","+","scenes/station_062.jpg","3",593
"108","5.0.7.0","win","17:48:59",4,"NQ",6,"likert_nq",30,"white_background_main_nq","+","scenes/station_101.jpg","2",1133
"109","5.0.7.0","win","17:48:59",4,"NQ",6,"likert_nq",31,"white_background_main_nq","+","scenes/beach_002.jpg","3",795
"110","5.0.7.0","win","17:48:59",4,"NQ",6,"likert_nq",32,"white_background_main_nq","+","scenes/city_117.jpg","4",1615
"111","5.0.7.0","win","17:48:59",4,"NQ",6,"likert_nq",33,"white_background_main_nq","+","scenes/beach_130.jpg","3",713
"112","5.0.7.0","win","17:48:59",4,"NQ",6,"likert_nq",34,"white_background_main_nq","+","scenes/station_010.jpg","3",568
"113","5.0.7.0","win","17:48:59",4,"NQ",6,"beginning_B2_nq_trial",35,"images/block2_inst.jpg","0","0","57",2757
"114","5.0.7.0","win","17:48:59",4,"NQ",6,"reminder_nq_trial",36,"images/noisy_quiet_scale_reminder_cut.jpg","Press enter to start the experiment","0","57",1571
"115","5.0.7.0","win","17:48:59",4,"NQ",6,"likert_nq",37,"white_background_main_nq","+","scenes/city_016.jpg","4",939
"116","5.0.7.0","win","17:48:59",4,"NQ",6,"likert_nq",38,"white_background_main_nq","+","scenes/forest_045.jpg","3",657
"117","5.0.7.0","win","17:48:59",4,"NQ",6,"likert_nq",39,"white_background_main_nq","+","scenes/beach_134.jpg","3",442
"118","5.0.7.0","win","17:48:59",4,"NQ",6,"likert_nq",40,"white_background_main_nq","+","scenes/station_030.jpg","3",769
"119","5.0.7.0","win","17:48:59",4,"NQ",6,"likert_nq",41,"white_background_main_nq","+","scenes/station_064.jpg","3",752
"120","5.0.7.0","win","17:48:59",4,"NQ",6,"likert_nq",42,"white_background_main_nq","+","scenes/station_108.jpg","2",1453
"121","5.0.7.0","win","17:48:59",4,"NQ",6,"likert_nq",43,"white_background_main_nq","+","scenes/city_059.jpg","3",1647
"122","5.0.7.0","win","17:48:59",4,"NQ",6,"likert_nq",44,"white_background_main_nq","+","scenes/beach_077.jpg","3",433
"123","5.0.7.0","win","17:48:59",4,"NQ",6,"likert_nq",45,"white_background_main_nq","+","scenes/forest_056.jpg","3",171
"124","5.0.7.0","win","17:48:59",4,"NQ",6,"likert_nq",46,"white_background_main_nq","+","scenes/station_113.jpg","2",879
"125","5.0.7.0","win","17:48:59",4,"NQ",6,"likert_nq",47,"white_background_main_nq","+","scenes/forest_053.jpg","3",768
"126","5.0.7.0","win","17:48:59",4,"NQ",6,"likert_nq",48,"white_background_main_nq","+","scenes/forest_015.jpg","3",452
"127","5.0.7.0","win","17:48:59",4,"NQ",6,"likert_nq",49,"white_background_main_nq","+","scenes/station_055.jpg","2",1613
"128","5.0.7.0","win","17:48:59",4,"NQ",6,"likert_nq",50,"white_background_main_nq","+","scenes/forest_043.jpg","3",407
"129","5.0.7.0","win","17:48:59",4,"NQ",6,"likert_nq",51,"white_background_main_nq","+","scenes/city_073.jpg","2",979
"130","5.0.7.0","win","17:48:59",4,"NQ",6,"likert_nq",52,"white_background_main_nq","+","scenes/beach_133.jpg","3",688
"131","5.0.7.0","win","17:48:59",4,"NQ",6,"likert_nq",53,"white_background_main_nq","+","scenes/city_102.jpg","3",1335
"132","5.0.7.0","win","17:48:59",4,"NQ",6,"likert_nq",54,"white_background_main_nq","+","scenes/station_103.jpg","2",1438
"133","5.0.7.0","win","17:48:59",4,"NQ",6,"likert_nq",55,"white_background_main_nq","+","scenes/city_019.jpg","3",1288
"134","5.0.7.0","win","17:48:59",4,"NQ",6,"likert_nq",56,"white_background_main_nq","+","scenes/station_025.jpg","3",583
"135","5.0.7.0","win","17:48:59",4,"NQ",6,"likert_nq",57,"white_background_main_nq","+","scenes/city_062.jpg","4",2500
"136","5.0.7.0","win","17:48:59",4,"NQ",6,"likert_nq",58,"white_background_main_nq","+","scenes/beach_137.jpg","3",716
"137","5.0.7.0","win","17:48:59",4,"NQ",6,"likert_nq",59,"white_background_main_nq","+","scenes/station_029.jpg","3",619
"138","5.0.7.0","win","17:48:59",4,"NQ",6,"likert_nq",60,"white_background_main_nq","+","scenes/forest_072.jpg","3",910
"139","5.0.7.0","win","17:48:59",4,"NQ",6,"likert_nq",61,"white_background_main_nq","+","scenes/city_075.jpg","2",1436
"140","5.0.7.0","win","17:48:59",4,"NQ",6,"likert_nq",62,"white_background_main_nq","+","scenes/forest_102.jpg","3",470
"141","5.0.7.0","win","17:48:59",4,"NQ",6,"likert_nq",63,"white_background_main_nq","+","scenes/beach_049.jpg","4",1719
"142","5.0.7.0","win","17:48:59",4,"NQ",6,"likert_nq",64,"white_background_main_nq","+","scenes/forest_044.jpg","3",573
"143","5.0.7.0","win","17:48:59",4,"NQ",6,"likert_nq",65,"white_background_main_nq","+","scenes/city_025.jpg","3",889
"144","5.0.7.0","win","17:48:59",4,"NQ",6,"likert_nq",66,"white_background_main_nq","+","scenes/forest_118.jpg","3",529
"145","5.0.7.0","win","17:48:59",4,"NQ",6,"likert_nq",67,"white_background_main_nq","+","scenes/city_070.jpg","2",1375
"146","5.0.7.0","win","17:48:59",4,"NQ",6,"likert_nq",68,"white_background_main_nq","+","scenes/forest_050.jpg","3",515
"147","5.0.7.0","win","17:48:59",4,"demo_block",7,"age",1,"0","0","0","61",9396
"148","5.0.7.0","win","17:48:59",4,"demo_block",7,"education",1,"0","0","0","bachelor's degree",9396
"149","5.0.7.0","win","17:48:59",4,"demo_block",7,"left_right_handed",1,"0","0","0","right",9396
"150","5.0.7.0","win","17:48:59",4,"demo_block",7,"raceoption1",2,"0","0","0","0",12659
"151","5.0.7.0","win","17:48:59",4,"demo_block",7,"raceoption2",2,"0","0","0","",12659
"152","5.0.7.0","win","17:48:59",4,"demo_block",7,"raceoption3",2,"0","0","0","",12659
"153","5.0.7.0","win","17:48:59",4,"demo_block",7,"raceoption4",2,"0","0","0","",12659
"154","5.0.7.0","win","17:48:59",4,"demo_block",7,"raceoption5",2,"0","0","0","",12659
"155","5.0.7.0","win","17:48:59",4,"demo_block",7,"raceoption6",2,"0","0","0","",12659
"156","5.0.7.0","win","17:48:59",4,"demo_block",7,"raceoption7",2,"0","0","0","",12659
"157","5.0.7.0","win","17:48:59",4,"demo_block",7,"raceoption8",2,"0","0","0","",12659
"158","5.0.7.0","win","17:48:59",4,"demo_block",7,"raceoption9",2,"0","0","0","",12659
"159","5.0.7.0","win","17:48:59",4,"demo_block",7,"raceother",2,"0","0","0","",12659
"160","5.0.7.0","win","17:48:59",4,"demo_block",7,"raceother",2,"0","0","0","",12659
"161","5.0.7.0","win","17:48:59",4,"demo_block",7,"english_language",2,"0","0","0","Yes",12659
"162","5.0.7.0","win","17:48:59",4,"demo_block",7,"english_languageother",2,"0","0","0","",12659
"163","5.0.7.0","win","17:48:59",4,"demo_block",7,"worker_id",2,"0","0","0","A1S88VQY8G8CNC",12659
"164","5.0.7.0","win","20:17:23",6,"HCPrac",2,"likert_prac_hc",1,"white_background_prac_hc","+","scenes/hot_cold_prac01.jpg","4",1717
"165","5.0.7.0","win","20:17:23",6,"HCPrac",2,"likert_prac_hc",2,"white_background_prac_hc","+","scenes/hot_cold_prac02.jpg","1",638
"166","5.0.7.0","win","20:17:23",6,"HCPrac",2,"likert_prac_hc",3,"white_background_prac_hc","+","scenes/hot_cold_prac03.jpg","5",2011
"167","5.0.7.0","win","20:17:23",6,"HCPrac",2,"likert_prac_hc",4,"white_background_prac_hc","+","scenes/hot_cold_prac04.jpg","2",785
"168","5.0.7.0","win","20:17:23",6,"HC",3,"beginning_B1_hc_trial",1,"images/block1_inst.png","0","0","57",1479
"169","5.0.7.0","win","20:17:23",6,"HC",3,"reminder_hc_trial",2,"images/hot_cold_scale_reminder.jpg","0","0","57",22
"170","5.0.7.0","win","20:17:23",6,"HC",3,"likert_hc",3,"white_background_main_hc","+","scenes/city_019.jpg","3",1009
"171","5.0.7.0","win","20:17:23",6,"HC",3,"likert_hc",4,"white_background_main_hc","+","scenes/forest_050.jpg","1",631
"172","5.0.7.0","win","20:17:23",6,"HC",3,"likert_hc",5,"white_background_main_hc","+","scenes/forest_113.jpg","3",1749
"173","5.0.7.0","win","20:17:23",6,"HC",3,"likert_hc",6,"white_background_main_hc","+","scenes/forest_031.jpg","3",870
"174","5.0.7.0","win","20:17:23",6,"HC",3,"likert_hc",7,"white_background_main_hc","+","scenes/station_103.jpg","3",3154
"175","5.0.7.0","win","20:17:23",6,"HC",3,"likert_hc",8,"white_background_main_hc","+","scenes/station_023.jpg","3",2616
"176","5.0.7.0","win","20:17:23",6,"HC",3,"likert_hc",9,"white_background_main_hc","+","scenes/station_108.jpg","2",1859
"177","5.0.7.0","win","20:17:23",6,"HC",3,"likert_hc",10,"white_background_main_hc","+","scenes/beach_057.jpg","1",1288
"178","5.0.7.0","win","20:17:23",6,"HC",3,"likert_hc",11,"white_background_main_hc","+","scenes/city_075.jpg","1",2450
"179","5.0.7.0","win","20:17:23",6,"HC",3,"likert_hc",12,"white_background_main_hc","+","scenes/city_023.jpg","3",678
"180","5.0.7.0","win","20:17:23",6,"HC",3,"likert_hc",13,"white_background_main_hc","+","scenes/beach_137.jpg","2",1186
"181","5.0.7.0","win","20:17:23",6,"HC",3,"likert_hc",14,"white_background_main_hc","+","scenes/forest_056.jpg","1",1017
"182","5.0.7.0","win","20:17:23",6,"HC",3,"likert_hc",15,"white_background_main_hc","+","scenes/station_101.jpg","3",1095
"183","5.0.7.0","win","20:17:23",6,"HC",3,"likert_hc",16,"white_background_main_hc","+","scenes/beach_077.jpg","1",1307
"184","5.0.7.0","win","20:17:23",6,"HC",3,"likert_hc",17,"white_background_main_hc","+","scenes/station_102.jpg","3",1142
"185","5.0.7.0","win","20:17:23",6,"HC",3,"likert_hc",18,"white_background_main_hc","+","scenes/forest_072.jpg","1",831
"186","5.0.7.0","win","20:17:23",6,"HC",3,"likert_hc",19,"white_background_main_hc","+","scenes/beach_133.jpg","3",2140
"187","5.0.7.0","win","20:17:23",6,"HC",3,"likert_hc",20,"white_background_main_hc","+","scenes/beach_080.jpg","1",3331
"188","5.0.7.0","win","20:17:23",6,"HC",3,"likert_hc",21,"white_background_main_hc","+","scenes/forest_102.jpg","1",572
"189","5.0.7.0","win","20:17:23",6,"HC",3,"likert_hc",22,"white_background_main_hc","+","scenes/city_032.jpg","3",749
"190","5.0.7.0","win","20:17:23",6,"HC",3,"likert_hc",23,"white_background_main_hc","+","scenes/forest_015.jpg","3",2206
"191","5.0.7.0","win","20:17:23",6,"HC",3,"likert_hc",24,"white_background_main_hc","+","scenes/city_117.jpg","3",2667
"192","5.0.7.0","win","20:17:23",6,"HC",3,"likert_hc",25,"white_background_main_hc","+","scenes/station_113.jpg","2",1406
"193","5.0.7.0","win","20:17:23",6,"HC",3,"likert_hc",26,"white_background_main_hc","+","scenes/station_072.jpg","2",2811
"194","5.0.7.0","win","20:17:23",6,"HC",3,"likert_hc",27,"white_background_main_hc","+","scenes/station_034.jpg","1",879
"195","5.0.7.0","win","20:17:23",6,"HC",3,"likert_hc",28,"white_background_main_hc","+","scenes/beach_067.jpg","2",1170
"196","5.0.7.0","win","20:17:23",6,"HC",3,"likert_hc",29,"white_background_main_hc","+","scenes/beach_044.jpg","4",1085
"197","5.0.7.0","win","20:17:23",6,"HC",3,"likert_hc",30,"white_background_main_hc","+","scenes/city_102.jpg","2",1213
"198","5.0.7.0","win","20:17:23",6,"HC",3,"likert_hc",31,"white_background_main_hc","+","scenes/station_010.jpg","3",860
"199","5.0.7.0","win","20:17:23",6,"HC",3,"likert_hc",32,"white_background_main_hc","+","scenes/city_016.jpg","4",1247
"200","5.0.7.0","win","20:17:23",6,"HC",3,"likert_hc",33,"white_background_main_hc","+","scenes/beach_131.jpg","3",1012
"201","5.0.7.0","win","20:17:23",6,"HC",3,"likert_hc",34,"white_background_main_hc","+","scenes/forest_107.jpg","3",357
"202","5.0.7.0","win","20:17:23",6,"HC",3,"beginning_B2_hc_trial",35,"images/block2_inst.jpg","0","0","57",2721
"203","5.0.7.0","win","20:17:23",6,"HC",3,"reminder_hc_trial",36,"images/hot_cold_scale_reminder.jpg","0","0","57",29
"204","5.0.7.0","win","20:17:23",6,"HC",3,"likert_hc",37,"white_background_main_hc","+","scenes/station_029.jpg","3",1028
"205","5.0.7.0","win","20:17:23",6,"HC",3,"likert_hc",38,"white_background_main_hc","+","scenes/city_062.jpg","2",774
"206","5.0.7.0","win","20:17:23",6,"HC",3,"likert_hc",39,"white_background_main_hc","+","scenes/city_020.jpg","3",852
"207","5.0.7.0","win","20:17:23",6,"HC",3,"likert_hc",40,"white_background_main_hc","+","scenes/city_073.jpg","2",821
"208","5.0.7.0","win","20:17:23",6,"HC",3,"likert_hc",41,"white_background_main_hc","+","scenes/forest_044.jpg","2",722
"209","5.0.7.0","win","20:17:23",6,"HC",3,"likert_hc",42,"white_background_main_hc","+","scenes/forest_045.jpg","3",1370
"210","5.0.7.0","win","20:17:23",6,"HC",3,"likert_hc",43,"white_background_main_hc","+","scenes/beach_002.jpg","4",1639
"211","5.0.7.0","win","20:17:23",6,"HC",3,"likert_hc",44,"white_background_main_hc","+","scenes/beach_134.jpg","3",815
"212","5.0.7.0","win","20:17:23",6,"HC",3,"likert_hc",45,"white_background_main_hc","+","scenes/station_064.jpg","2",2947
"213","5.0.7.0","win","20:17:23",6,"HC",3,"likert_hc",46,"white_background_main_hc","+","scenes/station_030.jpg","3",705
"214","5.0.7.0","win","20:17:23",6,"HC",3,"likert_hc",47,"white_background_main_hc","+","scenes/station_055.jpg","2",406
"215","5.0.7.0","win","20:17:23",6,"HC",3,"likert_hc",48,"white_background_main_hc","+","scenes/station_056.jpg","1",1280
"216","5.0.7.0","win","20:17:23",6,"HC",3,"likert_hc",49,"white_background_main_hc","+","scenes/forest_053.jpg","1",334
"217","5.0.7.0","win","20:17:23",6,"HC",3,"likert_hc",50,"white_background_main_hc","+","scenes/beach_101.jpg","3",573
"218","5.0.7.0","win","20:17:23",6,"HC",3,"likert_hc",51,"white_background_main_hc","+","scenes/city_025.jpg","4",1482
"219","5.0.7.0","win","20:17:23",6,"HC",3,"likert_hc",52,"white_background_main_hc","+","scenes/beach_049.jpg","1",1265
"220","5.0.7.0","win","20:17:23",6,"HC",3,"likert_hc",53,"white_background_main_hc","+","scenes/forest_014.jpg","3",680
"221","5.0.7.0","win","20:17:23",6,"HC",3,"likert_hc",54,"white_background_main_hc","+","scenes/forest_043.jpg","1",1554
"222","5.0.7.0","win","20:17:23",6,"HC",3,"likert_hc",55,"white_background_main_hc","+","scenes/city_059.jpg","1",1476
"223","5.0.7.0","win","20:17:23",6,"HC",3,"likert_hc",56,"white_background_main_hc","+","scenes/beach_130.jpg","4",1658
"224","5.0.7.0","win","20:17:23",6,"HC",3,"likert_hc",57,"white_background_main_hc","+","scenes/city_029.jpg","4",1500
"225","5.0.7.0","win","20:17:23",6,"HC",3,"likert_hc",58,"white_background_main_hc","+","scenes/station_062.jpg","2",594
"226","5.0.7.0","win","20:17:23",6,"HC",3,"likert_hc",59,"white_background_main_hc","+","scenes/city_063.jpg","1",2062
"227","5.0.7.0","win","20:17:23",6,"HC",3,"likert_hc",60,"white_background_main_hc","+","scenes/station_025.jpg","4",1560
"228","5.0.7.0","win","20:17:23",6,"HC",3,"likert_hc",61,"white_background_main_hc","+","scenes/forest_039.jpg","3",614
"229","5.0.7.0","win","20:17:23",6,"HC",3,"likert_hc",62,"white_background_main_hc","+","scenes/city_018.jpg","3",1458
"230","5.0.7.0","win","20:17:23",6,"HC",3,"likert_hc",63,"white_background_main_hc","+","scenes/beach_051.jpg","2",789
"231","5.0.7.0","win","20:17:23",6,"HC",3,"likert_hc",64,"white_background_main_hc","+","scenes/beach_132.jpg","3",1678
"232","5.0.7.0","win","20:17:23",6,"HC",3,"likert_hc",65,"white_background_main_hc","+","scenes/beach_050.jpg","1",859
"233","5.0.7.0","win","20:17:23",6,"HC",3,"likert_hc",66,"white_background_main_hc","+","scenes/forest_042.jpg","1",327
"234","5.0.7.0","win","20:17:23",6,"HC",3,"likert_hc",67,"white_background_main_hc","+","scenes/city_070.jpg","2",777
"235","5.0.7.0","win","20:17:23",6,"HC",3,"likert_hc",68,"white_background_main_hc","+","scenes/forest_118.jpg","3",593
"236","5.0.7.0","win","20:17:23",6,"NQPrac",5,"likert_nq_prac",1,"white_background_prac_nq","+","scenes/noisy_quiet_prac01.jpg","4",1043
"237","5.0.7.0","win","20:17:23",6,"NQPrac",5,"likert_nq_prac",2,"white_background_prac_nq","+","scenes/noisy_quiet_prac02.jpg","2",1071
"238","5.0.7.0","win","20:17:23",6,"NQPrac",5,"likert_nq_prac",3,"white_background_prac_nq","+","scenes/noisy_quiet_prac03.jpg","4",747
"239","5.0.7.0","win","20:17:23",6,"NQPrac",5,"likert_nq_prac",4,"white_background_prac_nq","+","scenes/noisy_quiet_prac04.jpg","3",819
"240","5.0.7.0","win","20:17:23",6,"NQPrac",5,"likert_nq_prac",5,"white_background_prac_nq","+","scenes/noisy_quiet_prac05.jpg","4",856
"241","5.0.7.0","win","20:17:23",6,"NQPrac",5,"likert_nq_prac",6,"white_background_prac_nq","+","scenes/noisy_quiet_prac06.jpg","2",613
"242","5.0.7.0","win","20:17:23",6,"NQ",6,"beginning_B1_nq_trial",1,"images/block1_inst.png","0","0","57",1258
"243","5.0.7.0","win","20:17:23",6,"NQ",6,"reminder_nq_trial",2,"images/noisy_quiet_scale_reminder_cut.jpg","Press enter to start the experiment","0","57",6803
"244","5.0.7.0","win","20:17:23",6,"NQ",6,"likert_nq",3,"white_background_main_nq","+","scenes/beach_131.jpg","2",1918
"245","5.0.7.0","win","20:17:23",6,"NQ",6,"likert_nq",4,"white_background_main_nq","+","scenes/station_103.jpg","2",2887
"246","5.0.7.0","win","20:17:23",6,"NQ",6,"likert_nq",5,"white_background_main_nq","+","scenes/station_029.jpg","2",1753
"247","5.0.7.0","win","20:17:23",6,"NQ",6,"likert_nq",6,"white_background_main_nq","+","scenes/forest_015.jpg","4",611
"248","5.0.7.0","win","20:17:23",6,"NQ",6,"likert_nq",7,"white_background_main_nq","+","scenes/forest_050.jpg","1",732
"249","5.0.7.0","win","20:17:23",6,"NQ",6,"likert_nq",8,"white_background_main_nq","+","scenes/city_070.jpg","2",414
"250","5.0.7.0","win","20:17:23",6,"NQ",6,"likert_nq",9,"white_background_main_nq","+","scenes/forest_102.jpg","3",820
"251","5.0.7.0","win","20:17:23",6,"NQ",6,"likert_nq",10,"white_background_main_nq","+","scenes/beach_050.jpg","2",1083
"252","5.0.7.0","win","20:17:23",6,"NQ",6,"likert_nq",11,"white_background_main_nq","+","scenes/city_029.jpg","2",822
"253","5.0.7.0","win","20:17:23",6,"NQ",6,"likert_nq",12,"white_background_main_nq","+","scenes/beach_130.jpg","3",989
"254","5.0.7.0","win","20:17:23",6,"NQ",6,"likert_nq",13,"white_background_main_nq","+","scenes/beach_101.jpg","3",333
"255","5.0.7.0","win","20:17:23",6,"NQ",6,"likert_nq",14,"white_background_main_nq","+","scenes/beach_057.jpg","4",392
"256","5.0.7.0","win","20:17:23",6,"NQ",6,"likert_nq",15,"white_background_main_nq","+","scenes/city_063.jpg","3",1231
"257","5.0.7.0","win","20:17:23",6,"NQ",6,"likert_nq",16,"white_background_main_nq","+","scenes/forest_031.jpg","1",1125
"258","5.0.7.0","win","20:17:23",6,"NQ",6,"likert_nq",17,"white_background_main_nq","+","scenes/station_010.jpg","5",408
"259","5.0.7.0","win","20:17:23",6,"NQ",6,"likert_nq",18,"white_background_main_nq","+","scenes/beach_137.jpg","4",327
"260","5.0.7.0","win","20:17:23",6,"NQ",6,"likert_nq",19,"white_background_main_nq","+","scenes/forest_056.jpg","2",409
"261","5.0.7.0","win","20:17:23",6,"NQ",6,"likert_nq",20,"white_background_main_nq","+","scenes/forest_044.jpg","4",744
"262","5.0.7.0","win","20:17:23",6,"NQ",6,"likert_nq",21,"white_background_main_nq","+","scenes/city_032.jpg","2",969
"263","5.0.7.0","win","20:17:23",6,"NQ",6,"likert_nq",22,"white_background_main_nq","+","scenes/city_073.jpg","1",1426
"264","5.0.7.0","win","20:17:23",6,"NQ",6,"likert_nq",23,"white_background_main_nq","+","scenes/forest_053.jpg","1",335
"265","5.0.7.0","win","20:17:23",6,"NQ",6,"likert_nq",24,"white_background_main_nq","+","scenes/city_117.jpg","3",2427
"266","5.0.7.0","win","20:17:23",6,"NQ",6,"likert_nq",25,"white_background_main_nq","+","scenes/beach_134.jpg","4",726
"267","5.0.7.0","win","20:17:23",6,"NQ",6,"likert_nq",26,"white_background_main_nq","+","scenes/city_019.jpg","2",849
"268","5.0.7.0","win","20:17:23",6,"NQ",6,"likert_nq",27,"white_background_main_nq","+","scenes/station_101.jpg","1",654
"269","5.0.7.0","win","20:17:23",6,"NQ",6,"likert_nq",28,"white_background_main_nq","+","scenes/beach_002.jpg","2",963
"270","5.0.7.0","win","20:17:23",6,"NQ",6,"likert_nq",29,"white_background_main_nq","+","scenes/beach_080.jpg","1",740
"271","5.0.7.0","win","20:17:23",6,"NQ",6,"likert_nq",30,"white_background_main_nq","+","scenes/station_108.jpg","1",966
"272","5.0.7.0","win","20:17:23",6,"NQ",6,"likert_nq",31,"white_background_main_nq","+","scenes/beach_051.jpg","4",758
"273","5.0.7.0","win","20:17:23",6,"NQ",6,"likert_nq",32,"white_background_main_nq","+","scenes/city_023.jpg","1",3950
"274","5.0.7.0","win","20:17:23",6,"NQ",6,"likert_nq",33,"white_background_main_nq","+","scenes/forest_014.jpg","4",565
"275","5.0.7.0","win","20:17:23",6,"NQ",6,"likert_nq",34,"white_background_main_nq","+","scenes/forest_113.jpg","5",886
"276","5.0.7.0","win","20:17:23",6,"NQ",6,"beginning_B2_nq_trial",35,"images/block2_inst.jpg","0","0","57",1484
"277","5.0.7.0","win","20:17:23",6,"NQ",6,"reminder_nq_trial",36,"images/noisy_quiet_scale_reminder_cut.jpg","Press enter to start the experiment","0","57",227
"278","5.0.7.0","win","20:17:23",6,"NQ",6,"likert_nq",37,"white_background_main_nq","+","scenes/station_030.jpg","2",1668
"279","5.0.7.0","win","20:17:23",6,"NQ",6,"likert_nq",38,"white_background_main_nq","+","scenes/city_016.jpg","3",881
"280","5.0.7.0","win","20:17:23",6,"NQ",6,"likert_nq",39,"white_background_main_nq","+","scenes/forest_039.jpg","2",1108
"281","5.0.7.0","win","20:17:23",6,"NQ",6,"likert_nq",40,"white_background_main_nq","+","scenes/forest_107.jpg","3",2671
"282","5.0.7.0","win","20:17:23",6,"NQ",6,"likert_nq",41,"white_background_main_nq","+","scenes/station_062.jpg","4",1336
"283","5.0.7.0","win","20:17:23",6,"NQ",6,"likert_nq",42,"white_background_main_nq","+","scenes/beach_077.jpg","4",731
"284","5.0.7.0","win","20:17:23",6,"NQ",6,"likert_nq",43,"white_background_main_nq","+","scenes/beach_133.jpg","5",1053
"285","5.0.7.0","win","20:17:23",6,"NQ",6,"likert_nq",44,"white_background_main_nq","+","scenes/forest_072.jpg","1",1433
"286","5.0.7.0","win","20:17:23",6,"NQ",6,"likert_nq",45,"white_background_main_nq","+","scenes/station_055.jpg","1",1719
"287","5.0.7.0","win","20:17:23",6,"NQ",6,"likert_nq",46,"white_background_main_nq","+","scenes/forest_042.jpg","5",1288
"288","5.0.7.0","win","20:17:23",6,"NQ",6,"likert_nq",47,"white_background_main_nq","+","scenes/forest_045.jpg","5",1715
"289","5.0.7.0","win","20:17:23",6,"NQ",6,"likert_nq",48,"white_background_main_nq","+","scenes/city_062.jpg","2",782
"290","5.0.7.0","win","20:17:23",6,"NQ",6,"likert_nq",49,"white_background_main_nq","+","scenes/beach_132.jpg","1",829
"291","5.0.7.0","win","20:17:23",6,"NQ",6,"likert_nq",50,"white_background_main_nq","+","scenes/city_075.jpg","2",747
"292","5.0.7.0","win","20:17:23",6,"NQ",6,"likert_nq",51,"white_background_main_nq","+","scenes/station_113.jpg","1",1667
"293","5.0.7.0","win","20:17:23",6,"NQ",6,"likert_nq",52,"white_background_main_nq","+","scenes/city_018.jpg","1",800
"294","5.0.7.0","win","20:17:23",6,"NQ",6,"likert_nq",53,"white_background_main_nq","+","scenes/city_020.jpg","2",2342
"295","5.0.7.0","win","20:17:23",6,"NQ",6,"likert_nq",54,"white_background_main_nq","+","scenes/city_059.jpg","1",486
"296","5.0.7.0","win","20:17:23",6,"NQ",6,"likert_nq",55,"white_background_main_nq","+","scenes/beach_044.jpg","4",1090
"297","5.0.7.0","win","20:17:23",6,"NQ",6,"likert_nq",56,"white_background_main_nq","+","scenes/station_064.jpg","3",1045
"298","5.0.7.0","win","20:17:23",6,"NQ",6,"likert_nq",57,"white_background_main_nq","+","scenes/forest_118.jpg","4",811
"299","5.0.7.0","win","20:17:23",6,"NQ",6,"likert_nq",58,"white_background_main_nq","+","scenes/city_102.jpg","2",506
"300","5.0.7.0","win","20:17:23",6,"NQ",6,"likert_nq",59,"white_background_main_nq","+","scenes/station_102.jpg","1",900
"301","5.0.7.0","win","20:17:23",6,"NQ",6,"likert_nq",60,"white_background_main_nq","+","scenes/station_034.jpg","4",2400
"302","5.0.7.0","win","20:17:23",6,"NQ",6,"likert_nq",61,"white_background_main_nq","+","scenes/station_056.jpg","1",702
"303","5.0.7.0","win","20:17:23",6,"NQ",6,"likert_nq",62,"white_background_main_nq","+","scenes/forest_043.jpg","4",633
"304","5.0.7.0","win","20:17:23",6,"NQ",6,"likert_nq",63,"white_background_main_nq","+","scenes/station_023.jpg","1",1664
"305","5.0.7.0","win","20:17:23",6,"NQ",6,"likert_nq",64,"white_background_main_nq","+","scenes/beach_049.jpg","2",1563
"306","5.0.7.0","win","20:17:23",6,"NQ",6,"likert_nq",65,"white_background_main_nq","+","scenes/city_025.jpg","2",3292
"307","5.0.7.0","win","20:17:23",6,"NQ",6,"likert_nq",66,"white_background_main_nq","+","scenes/beach_067.jpg","1",1148
"308","5.0.7.0","win","20:17:23",6,"NQ",6,"likert_nq",67,"white_background_main_nq","+","scenes/station_025.jpg","2",1661
"309","5.0.7.0","win","20:17:23",6,"NQ",6,"likert_nq",68,"white_background_main_nq","+","scenes/station_072.jpg","4",816
"310","5.0.7.0","win","20:17:23",6,"demo_block",7,"age",1,"0","0","0","30",7575
"311","5.0.7.0","win","20:17:23",6,"demo_block",7,"education",1,"0","0","0","bachelor's degree",7575
"312","5.0.7.0","win","20:17:23",6,"demo_block",7,"left_right_handed",1,"0","0","0","right",7575
"313","5.0.7.0","win","20:17:23",6,"demo_block",7,"raceoption1",2,"0","0","0","",7974
"314","5.0.7.0","win","20:17:23",6,"demo_block",7,"raceoption2",2,"0","0","0","",7974
"315","5.0.7.0","win","20:17:23",6,"demo_block",7,"raceoption3",2,"0","0","0","",7974
"316","5.0.7.0","win","20:17:23",6,"demo_block",7,"raceoption4",2,"0","0","0","",7974
"317","5.0.7.0","win","20:17:23",6,"demo_block",7,"raceoption5",2,"0","0","0","4",7974
"318","5.0.7.0","win","20:17:23",6,"demo_block",7,"raceoption6",2,"0","0","0","",7974
"319","5.0.7.0","win","20:17:23",6,"demo_block",7,"raceoption7",2,"0","0","0","",7974
"320","5.0.7.0","win","20:17:23",6,"demo_block",7,"raceoption8",2,"0","0","0","",7974
"321","5.0.7.0","win","20:17:23",6,"demo_block",7,"raceoption9",2,"0","0","0","",7974
"322","5.0.7.0","win","20:17:23",6,"demo_block",7,"raceother",2,"0","0","0","",7974
"323","5.0.7.0","win","20:17:23",6,"demo_block",7,"raceother",2,"0","0","0","",7974
"324","5.0.7.0","win","20:17:23",6,"demo_block",7,"english_language",2,"0","0","0","Yes",7974
"325","5.0.7.0","win","20:17:23",6,"demo_block",7,"english_languageother",2,"0","0","0","",7974
"326","5.0.7.0","win","20:17:23",6,"demo_block",7,"worker_id",2,"0","0","0","A2LV5432PV1S39",7974
"327","5.0.7.0","win","9:12:10",8,"HCPrac",2,"likert_prac_hc",1,"white_background_prac_hc","+","scenes/hot_cold_prac01.jpg","5",2618
"328","5.0.7.0","win","9:12:10",8,"HCPrac",2,"likert_prac_hc",2,"white_background_prac_hc","+","scenes/hot_cold_prac02.jpg","1",1801
"329","5.0.7.0","win","9:12:10",8,"HCPrac",2,"likert_prac_hc",3,"white_background_prac_hc","+","scenes/hot_cold_prac03.jpg","5",3448
"330","5.0.7.0","win","9:12:10",8,"HCPrac",2,"likert_prac_hc",4,"white_background_prac_hc","+","scenes/hot_cold_prac04.jpg","1",2686
"331","5.0.7.0","win","9:12:10",8,"HC",3,"beginning_B1_hc_trial",1,"images/block1_inst.png","0","0","57",11601
"332","5.0.7.0","win","9:12:10",8,"HC",3,"reminder_hc_trial",2,"images/hot_cold_scale_reminder.jpg","0","0","57",3977
"333","5.0.7.0","win","9:12:10",8,"HC",3,"likert_hc",3,"white_background_main_hc","+","scenes/beach_044.jpg","2",7076
"334","5.0.7.0","win","9:12:10",8,"HC",3,"likert_hc",4,"white_background_main_hc","+","scenes/city_063.jpg","1",1872
"335","5.0.7.0","win","9:12:10",8,"HC",3,"likert_hc",5,"white_background_main_hc","+","scenes/station_113.jpg","1",2221
"336","5.0.7.0","win","9:12:10",8,"HC",3,"likert_hc",6,"white_background_main_hc","+","scenes/station_064.jpg","1",1144
"337","5.0.7.0","win","9:12:10",8,"HC",3,"likert_hc",7,"white_background_main_hc","+","scenes/beach_057.jpg","1",2274
"338","5.0.7.0","win","9:12:10",8,"HC",3,"likert_hc",8,"white_background_main_hc","+","scenes/forest_044.jpg","2",3083
"339","5.0.7.0","win","9:12:10",8,"HC",3,"likert_hc",9,"white_background_main_hc","+","scenes/city_062.jpg","1",2520
"340","5.0.7.0","win","9:12:10",8,"HC",3,"likert_hc",10,"white_background_main_hc","+","scenes/beach_049.jpg","1",2394
"341","5.0.7.0","win","9:12:10",8,"HC",3,"likert_hc",11,"white_background_main_hc","+","scenes/city_019.jpg","4",3838
"342","5.0.7.0","win","9:12:10",8,"HC",3,"likert_hc",12,"white_background_main_hc","+","scenes/beach_080.jpg","1",1721
"343","5.0.7.0","win","9:12:10",8,"HC",3,"likert_hc",13,"white_background_main_hc","+","scenes/beach_134.jpg","4",5959
"344","5.0.7.0","win","9:12:10",8,"HC",3,"likert_hc",14,"white_background_main_hc","+","scenes/station_056.jpg","1",1157
"345","5.0.7.0","win","9:12:10",8,"HC",3,"likert_hc",15,"white_background_main_hc","+","scenes/station_023.jpg","3",5313
"346","5.0.7.0","win","9:12:10",8,"HC",3,"likert_hc",16,"white_background_main_hc","+","scenes/city_029.jpg","3",5007
"347","5.0.7.0","win","9:12:10",8,"HC",3,"likert_hc",17,"white_background_main_hc","+","scenes/beach_101.jpg","4",4733
"348","5.0.7.0","win","9:12:10",8,"HC",3,"likert_hc",18,"white_background_main_hc","+","scenes/forest_113.jpg","4",4111
"349","5.0.7.0","win","9:12:10",8,"HC",3,"likert_hc",19,"white_background_main_hc","+","scenes/forest_015.jpg","4",5105
"350","5.0.7.0","win","9:12:10",8,"HC",3,"likert_hc",20,"white_background_main_hc","+","scenes/beach_050.jpg","1",1573
"351","5.0.7.0","win","9:12:10",8,"HC",3,"likert_hc",21,"white_background_main_hc","+","scenes/station_102.jpg","3",3402
"352","5.0.7.0","win","9:12:10",8,"HC",3,"likert_hc",22,"white_background_main_hc","+","scenes/beach_132.jpg","3",5262
"353","5.0.7.0","win","9:12:10",8,"HC",3,"likert_hc",23,"white_background_main_hc","+","scenes/station_034.jpg","1",2858
"354","5.0.7.0","win","9:12:10",8,"HC",3,"likert_hc",24,"white_background_main_hc","+","scenes/forest_107.jpg","3",3603
"355","5.0.7.0","win","9:12:10",8,"HC",3,"likert_hc",25,"white_background_main_hc","+","scenes/city_102.jpg","1",1535
"356","5.0.7.0","win","9:12:10",8,"HC",3,"likert_hc",26,"white_background_main_hc","+","scenes/city_018.jpg","5",4014
"357","5.0.7.0","win","9:12:10",8,"HC",3,"likert_hc",27,"white_background_main_hc","+","scenes/station_062.jpg","1",1136
"358","5.0.7.0","win","9:12:10",8,"HC",3,"likert_hc",28,"white_background_main_hc","+","scenes/city_075.jpg","1",931
"359","5.0.7.0","win","9:12:10",8,"HC",3,"likert_hc",29,"white_background_main_hc","+","scenes/city_020.jpg","4",2370
"360","5.0.7.0","win","9:12:10",8,"HC",3,"likert_hc",30,"white_background_main_hc","+","scenes/forest_043.jpg","1",1520
"361","5.0.7.0","win","9:12:10",8,"HC",3,"likert_hc",31,"white_background_main_hc","+","scenes/beach_067.jpg","1",1643
"362","5.0.7.0","win","9:12:10",8,"HC",3,"likert_hc",32,"white_background_main_hc","+","scenes/forest_072.jpg","1",2137
"363","5.0.7.0","win","9:12:10",8,"HC",3,"likert_hc",33,"white_background_main_hc","+","scenes/station_101.jpg","4",2460
"364","5.0.7.0","win","9:12:10",8,"HC",3,"likert_hc",34,"white_background_main_hc","+","scenes/forest_045.jpg","2",3905
"365","5.0.7.0","win","9:12:10",8,"HC",3,"beginning_B2_hc_trial",35,"images/block2_inst.jpg","0","0","57",25639
"366","5.0.7.0","win","9:12:10",8,"HC",3,"reminder_hc_trial",36,"images/hot_cold_scale_reminder.jpg","0","0","57",9118
"367","5.0.7.0","win","9:12:10",8,"HC",3,"likert_hc",37,"white_background_main_hc","+","scenes/city_073.jpg","1",2606
"368","5.0.7.0","win","9:12:10",8,"HC",3,"likert_hc",38,"white_background_main_hc","+","scenes/beach_130.jpg","4",2924
"369","5.0.7.0","win","9:12:10",8,"HC",3,"likert_hc",39,"white_background_main_hc","+","scenes/station_055.jpg","1",1611
"370","5.0.7.0","win","9:12:10",8,"HC",3,"likert_hc",40,"white_background_main_hc","+","scenes/forest_050.jpg","1",1310
"371","5.0.7.0","win","9:12:10",8,"HC",3,"likert_hc",41,"white_background_main_hc","+","scenes/station_029.jpg","3",5137
"372","5.0.7.0","win","9:12:10",8,"HC",3,"likert_hc",42,"white_background_main_hc","+","scenes/station_108.jpg","1",2615
"373","5.0.7.0","win","9:12:10",8,"HC",3,"likert_hc",43,"white_background_main_hc","+","scenes/city_070.jpg","1",1275
"374","5.0.7.0","win","9:12:10",8,"HC",3,"likert_hc",44,"white_background_main_hc","+","scenes/station_010.jpg","3",3055
"375","5.0.7.0","win","9:12:10",8,"HC",3,"likert_hc",45,"white_background_main_hc","+","scenes/city_117.jpg","2",6048
"376","5.0.7.0","win","9:12:10",8,"HC",3,"likert_hc",46,"white_background_main_hc","+","scenes/forest_014.jpg","4",2837
"377","5.0.7.0","win","9:12:10",8,"HC",3,"likert_hc",47,"white_background_main_hc","+","scenes/forest_118.jpg","3",2780
"378","5.0.7.0","win","9:12:10",8,"HC",3,"likert_hc",48,"white_background_main_hc","+","scenes/forest_056.jpg","1",1356
"379","5.0.7.0","win","9:12:10",8,"HC",3,"likert_hc",49,"white_background_main_hc","+","scenes/beach_051.jpg","1",3846
"380","5.0.7.0","win","9:12:10",8,"HC",3,"likert_hc",50,"white_background_main_hc","+","scenes/forest_053.jpg","1",1932
"381","5.0.7.0","win","9:12:10",8,"HC",3,"likert_hc",51,"white_background_main_hc","+","scenes/city_032.jpg","3",4041
"382","5.0.7.0","win","9:12:10",8,"HC",3,"likert_hc",52,"white_background_main_hc","+","scenes/forest_031.jpg","3",6474
"383","5.0.7.0","win","9:12:10",8,"HC",3,"likert_hc",53,"white_background_main_hc","+","scenes/city_023.jpg","3",4039
"384","5.0.7.0","win","9:12:10",8,"HC",3,"likert_hc",54,"white_background_main_hc","+","scenes/station_103.jpg","3",5345
"385","5.0.7.0","win","9:12:10",8,"HC",3,"likert_hc",55,"white_background_main_hc","+","scenes/beach_131.jpg","4",6573
"386","5.0.7.0","win","9:12:10",8,"HC",3,"likert_hc",56,"white_background_main_hc","+","scenes/beach_077.jpg","1",1401
"387","5.0.7.0","win","9:12:10",8,"HC",3,"likert_hc",57,"white_background_main_hc","+","scenes/station_030.jpg","3",6261
"388","5.0.7.0","win","9:12:10",8,"HC",3,"likert_hc",58,"white_background_main_hc","+","scenes/forest_039.jpg","3",5825
"389","5.0.7.0","win","9:12:10",8,"HC",3,"likert_hc",59,"white_background_main_hc","+","scenes/beach_133.jpg","3",5955
"390","5.0.7.0","win","9:12:10",8,"HC",3,"likert_hc",60,"white_background_main_hc","+","scenes/beach_002.jpg","4",7628
"391","5.0.7.0","win","9:12:10",8,"HC",3,"likert_hc",61,"white_background_main_hc","+","scenes/beach_137.jpg","2",2333
"392","5.0.7.0","win","9:12:10",8,"HC",3,"likert_hc",62,"white_background_main_hc","+","scenes/station_025.jpg","3",4463
"393","5.0.7.0","win","9:12:10",8,"HC",3,"likert_hc",63,"white_background_main_hc","+","scenes/forest_102.jpg","1",7299
"394","5.0.7.0","win","9:12:10",8,"HC",3,"likert_hc",64,"white_background_main_hc","+","scenes/forest_042.jpg","1",835
"395","5.0.7.0","win","9:12:10",8,"HC",3,"likert_hc",65,"white_background_main_hc","+","scenes/city_059.jpg","1",1021
"396","5.0.7.0","win","9:12:10",8,"HC",3,"likert_hc",66,"white_background_main_hc","+","scenes/station_072.jpg","1",1469
"397","5.0.7.0","win","9:12:10",8,"HC",3,"likert_hc",67,"white_background_main_hc","+","scenes/city_016.jpg","4",3891
"398","5.0.7.0","win","9:12:10",8,"HC",3,"likert_hc",68,"white_background_main_hc","+","scenes/city_025.jpg","4",3566
"399","5.0.7.0","win","9:12:10",8,"NQPrac",5,"likert_nq_prac",1,"white_background_prac_nq","+","scenes/noisy_quiet_prac01.jpg","5",3635
"400","5.0.7.0","win","9:12:10",8,"NQPrac",5,"likert_nq_prac",2,"white_background_prac_nq","+","scenes/noisy_quiet_prac02.jpg","1",4837
"401","5.0.7.0","win","9:12:10",8,"NQPrac",5,"likert_nq_prac",3,"white_background_prac_nq","+","scenes/noisy_quiet_prac03.jpg","3",5198
"402","5.0.7.0","win","9:12:10",8,"NQPrac",5,"likert_nq_prac",4,"white_background_prac_nq","+","scenes/noisy_quiet_prac04.jpg","3",4142
"403","5.0.7.0","win","9:12:10",8,"NQPrac",5,"likert_nq_prac",5,"white_background_prac_nq","+","scenes/noisy_quiet_prac05.jpg","3",8402
"404","5.0.7.0","win","9:12:10",8,"NQPrac",5,"likert_nq_prac",6,"white_background_prac_nq","+","scenes/noisy_quiet_prac06.jpg","3",7589
"405","5.0.7.0","win","9:12:10",8,"NQ",6,"beginning_B1_nq_trial",1,"images/block1_inst.png","0","0","57",2992
"406","5.0.7.0","win","9:12:10",8,"NQ",6,"reminder_nq_trial",2,"images/noisy_quiet_scale_reminder_cut.jpg","Press enter to start the experiment","0","57",21103
"407","5.0.7.0","win","9:12:10",8,"NQ",6,"likert_nq",3,"white_background_main_nq","+","scenes/beach_050.jpg","2",5762
"408","5.0.7.0","win","9:12:10",8,"NQ",6,"likert_nq",4,"white_background_main_nq","+","scenes/city_102.jpg","2",6166
"409","5.0.7.0","win","9:12:10",8,"NQ",6,"likert_nq",5,"white_background_main_nq","+","scenes/forest_118.jpg","2",6875
"410","5.0.7.0","win","9:12:10",8,"NQ",6,"likert_nq",6,"white_background_main_nq","+","scenes/beach_134.jpg","1",7142
"411","5.0.7.0","win","9:12:10",8,"NQ",6,"likert_nq",7,"white_background_main_nq","+","scenes/beach_130.jpg","1",3456
"412","5.0.7.0","win","9:12:10",8,"NQ",6,"likert_nq",8,"white_background_main_nq","+","scenes/station_102.jpg","2",5961
"413","5.0.7.0","win","9:12:10",8,"NQ",6,"likert_nq",9,"white_background_main_nq","+","scenes/beach_057.jpg","2",13885
"414","5.0.7.0","win","9:12:10",8,"NQ",6,"likert_nq",10,"white_background_main_nq","+","scenes/city_018.jpg","2",5715
"415","5.0.7.0","win","9:12:10",8,"NQ",6,"likert_nq",11,"white_background_main_nq","+","scenes/city_070.jpg","1",4213
"416","5.0.7.0","win","9:12:10",8,"NQ",6,"likert_nq",12,"white_background_main_nq","+","scenes/station_103.jpg","2",9743
"417","5.0.7.0","win","9:12:10",8,"NQ",6,"likert_nq",13,"white_background_main_nq","+","scenes/beach_044.jpg","2",6076
"418","5.0.7.0","win","9:12:10",8,"NQ",6,"likert_nq",14,"white_background_main_nq","+","scenes/station_010.jpg","5",6907
"419","5.0.7.0","win","9:12:10",8,"NQ",6,"likert_nq",15,"white_background_main_nq","+","scenes/forest_031.jpg","1",4442
"420","5.0.7.0","win","9:12:10",8,"NQ",6,"likert_nq",16,"white_background_main_nq","+","scenes/beach_101.jpg","1",3809
"421","5.0.7.0","win","9:12:10",8,"NQ",6,"likert_nq",17,"white_background_main_nq","+","scenes/station_023.jpg","1",5951
"422","5.0.7.0","win","9:12:10",8,"NQ",6,"likert_nq",18,"white_background_main_nq","+","scenes/city_063.jpg","2",5601
"423","5.0.7.0","win","9:12:10",8,"NQ",6,"likert_nq",19,"white_background_main_nq","+","scenes/beach_051.jpg","2",2808
"424","5.0.7.0","win","9:12:10",8,"NQ",6,"likert_nq",20,"white_background_main_nq","+","scenes/beach_077.jpg","2",5771
"425","5.0.7.0","win","9:12:10",8,"NQ",6,"likert_nq",21,"white_background_main_nq","+","scenes/city_020.jpg","3",2368
"426","5.0.7.0","win","9:12:10",8,"NQ",6,"likert_nq",22,"white_background_main_nq","+","scenes/station_055.jpg","1",6241
"427","5.0.7.0","win","9:12:10",8,"NQ",6,"likert_nq",23,"white_background_main_nq","+","scenes/station_030.jpg","2",3407
"428","5.0.7.0","win","9:12:10",8,"NQ",6,"likert_nq",24,"white_background_main_nq","+","scenes/station_064.jpg","4",8797
"429","5.0.7.0","win","9:12:10",8,"NQ",6,"likert_nq",25,"white_background_main_nq","+","scenes/station_101.jpg","1",2552
"430","5.0.7.0","win","9:12:10",8,"NQ",6,"likert_nq",26,"white_background_main_nq","+","scenes/city_062.jpg","3",8117
"431","5.0.7.0","win","9:12:10",8,"NQ",6,"likert_nq",27,"white_background_main_nq","+","scenes/city_032.jpg","2",12538
"432","5.0.7.0","win","9:12:10",8,"NQ",6,"likert_nq",28,"white_background_main_nq","+","scenes/forest_053.jpg","4",6798
"433","5.0.7.0","win","9:12:10",8,"NQ",6,"likert_nq",29,"white_background_main_nq","+","scenes/city_059.jpg","2",3573
"434","5.0.7.0","win","9:12:10",8,"NQ",6,"likert_nq",30,"white_background_main_nq","+","scenes/forest_102.jpg","4",3950
"435","5.0.7.0","win","9:12:10",8,"NQ",6,"likert_nq",31,"white_background_main_nq","+","scenes/station_029.jpg","4",2204
"436","5.0.7.0","win","9:12:10",8,"NQ",6,"likert_nq",32,"white_background_main_nq","+","scenes/station_025.jpg","4",1124
"437","5.0.7.0","win","9:12:10",8,"NQ",6,"likert_nq",33,"white_background_main_nq","+","scenes/city_023.jpg","2",2036
"438","5.0.7.0","win","9:12:10",8,"NQ",6,"likert_nq",34,"white_background_main_nq","+","scenes/beach_067.jpg","2",2558
"439","5.0.7.0","win","9:12:10",8,"NQ",6,"beginning_B2_nq_trial",35,"images/block2_inst.jpg","0","0","57",16570
"440","5.0.7.0","win","9:12:10",8,"NQ",6,"reminder_nq_trial",36,"images/noisy_quiet_scale_reminder_cut.jpg","Press enter to start the experiment","0","57",9576
"441","5.0.7.0","win","9:12:10",8,"NQ",6,"likert_nq",37,"white_background_main_nq","+","scenes/city_029.jpg","2",6320
"442","5.0.7.0","win","9:12:10",8,"NQ",6,"likert_nq",38,"white_background_main_nq","+","scenes/city_025.jpg","3",8598
"443","5.0.7.0","win","9:12:10",8,"NQ",6,"likert_nq",39,"white_background_main_nq","+","scenes/forest_107.jpg","2",5280
"444","5.0.7.0","win","9:12:10",8,"NQ",6,"likert_nq",40,"white_background_main_nq","+","scenes/station_034.jpg","4",3448
"445","5.0.7.0","win","9:12:10",8,"NQ",6,"likert_nq",41,"white_background_main_nq","+","scenes/beach_131.jpg","2",2690
"446","5.0.7.0","win","9:12:10",8,"NQ",6,"likert_nq",42,"white_background_main_nq","+","scenes/beach_002.jpg","4",4272
"447","5.0.7.0","win","9:12:10",8,"NQ",6,"likert_nq",43,"white_background_main_nq","+","scenes/forest_045.jpg","4",1908
"448","5.0.7.0","win","9:12:10",8,"NQ",6,"likert_nq",44,"white_background_main_nq","+","scenes/city_117.jpg","3",6347
"449","5.0.7.0","win","9:12:10",8,"NQ",6,"likert_nq",45,"white_background_main_nq","+","scenes/station_056.jpg","2",4268
"450","5.0.7.0","win","9:12:10",8,"NQ",6,"likert_nq",46,"white_background_main_nq","+","scenes/city_016.jpg","4",1413
"451","5.0.7.0","win","9:12:10",8,"NQ",6,"likert_nq",47,"white_background_main_nq","+","scenes/beach_049.jpg","4",1441
"452","5.0.7.0","win","9:12:10",8,"NQ",6,"likert_nq",48,"white_background_main_nq","+","scenes/station_072.jpg","4",2195
"453","5.0.7.0","win","9:12:10",8,"NQ",6,"likert_nq",49,"white_background_main_nq","+","scenes/forest_113.jpg","4",2900
"454","5.0.7.0","win","9:12:10",8,"NQ",6,"likert_nq",50,"white_background_main_nq","+","scenes/beach_133.jpg","3",1851
"455","5.0.7.0","win","9:12:10",8,"NQ",6,"likert_nq",51,"white_background_main_nq","+","scenes/station_113.jpg","2",3865
"456","5.0.7.0","win","9:12:10",8,"NQ",6,"likert_nq",52,"white_background_main_nq","+","scenes/station_062.jpg","4",2778
"457","5.0.7.0","win","9:12:10",8,"NQ",6,"likert_nq",53,"white_background_main_nq","+","scenes/beach_080.jpg","3",6254
"458","5.0.7.0","win","9:12:10",8,"NQ",6,"likert_nq",54,"white_background_main_nq","+","scenes/forest_015.jpg","5",5263
"459","5.0.7.0","win","9:12:10",8,"NQ",6,"likert_nq",55,"white_background_main_nq","+","scenes/forest_043.jpg","4",1707
"460","5.0.7.0","win","9:12:10",8,"NQ",6,"likert_nq",56,"white_background_main_nq","+","scenes/city_075.jpg","3",2200
"461","5.0.7.0","win","9:12:10",8,"NQ",6,"likert_nq",57,"white_background_main_nq","+","scenes/forest_072.jpg","2",5543
"462","5.0.7.0","win","9:12:10",8,"NQ",6,"likert_nq",58,"white_background_main_nq","+","scenes/forest_014.jpg","4",2694
"463","5.0.7.0","win","9:12:10",8,"NQ",6,"likert_nq",59,"white_background_main_nq","+","scenes/beach_137.jpg","3",3597
"464","5.0.7.0","win","9:12:10",8,"NQ",6,"likert_nq",60,"white_background_main_nq","+","scenes/beach_132.jpg","3",1509
"465","5.0.7.0","win","9:12:10",8,"NQ",6,"likert_nq",61,"white_background_main_nq","+","scenes/city_019.jpg","3",2053
"466","5.0.7.0","win","9:12:10",8,"NQ",6,"likert_nq",62,"white_background_main_nq","+","scenes/forest_042.jpg","4",4067
"467","5.0.7.0","win","9:12:10",8,"NQ",6,"likert_nq",63,"white_background_main_nq","+","scenes/city_073.jpg","2",2580
"468","5.0.7.0","win","9:12:10",8,"NQ",6,"likert_nq",64,"white_background_main_nq","+","scenes/forest_044.jpg","4",1828
"469","5.0.7.0","win","9:12:10",8,"NQ",6,"likert_nq",65,"white_background_main_nq","+","scenes/forest_050.jpg","3",2799
"470","5.0.7.0","win","9:12:10",8,"NQ",6,"likert_nq",66,"white_background_main_nq","+","scenes/station_108.jpg","4",4494
"471","5.0.7.0","win","9:12:10",8,"NQ",6,"likert_nq",67,"white_background_main_nq","+","scenes/forest_056.jpg","4",1218
"472","5.0.7.0","win","9:12:10",8,"NQ",6,"likert_nq",68,"white_background_main_nq","+","scenes/forest_039.jpg","1",14368
"473","5.0.7.0","win","9:12:10",8,"demo_block",7,"age",1,"0","0","0","58",12063
"474","5.0.7.0","win","9:12:10",8,"demo_block",7,"education",1,"0","0","0","associate's degree",12063
"475","5.0.7.0","win","9:12:10",8,"demo_block",7,"left_right_handed",1,"0","0","0","left",12063
"476","5.0.7.0","win","9:12:10",8,"demo_block",7,"raceoption1",2,"0","0","0","0",71278
"477","5.0.7.0","win","9:12:10",8,"demo_block",7,"raceoption2",2,"0","0","0","",71278
"478","5.0.7.0","win","9:12:10",8,"demo_block",7,"raceoption3",2,"0","0","0","",71278
"479","5.0.7.0","win","9:12:10",8,"demo_block",7,"raceoption4",2,"0","0","0","",71278
"480","5.0.7.0","win","9:12:10",8,"demo_block",7,"raceoption5",2,"0","0","0","",71278
"481","5.0.7.0","win","9:12:10",8,"demo_block",7,"raceoption6",2,"0","0","0","",71278
"482","5.0.7.0","win","9:12:10",8,"demo_block",7,"raceoption7",2,"0","0","0","",71278
"483","5.0.7.0","win","9:12:10",8,"demo_block",7,"raceoption8",2,"0","0","0","",71278
"484","5.0.7.0","win","9:12:10",8,"demo_block",7,"raceoption9",2,"0","0","0","",71278
"485","5.0.7.0","win","9:12:10",8,"demo_block",7,"raceother",2,"0","0","0","",71278
"486","5.0.7.0","win","9:12:10",8,"demo_block",7,"raceother",2,"0","0","0","",71278
"487","5.0.7.0","win","9:12:10",8,"demo_block",7,"english_language",2,"0","0","0","Yes",71278
"488","5.0.7.0","win","9:12:10",8,"demo_block",7,"english_languageother",2,"0","0","0","",71278
"489","5.0.7.0","win","9:12:10",8,"demo_block",7,"worker_id",2,"0","0","0","AU8YVB738G6C",71278
"490","5.0.7.0","win","10:27:55",12,"HCPrac",2,"likert_prac_hc",1,"white_background_prac_hc","+","scenes/hot_cold_prac01.jpg","4",2033
"491","5.0.7.0","win","10:27:55",12,"HCPrac",2,"likert_prac_hc",2,"white_background_prac_hc","+","scenes/hot_cold_prac02.jpg","1",1389
"492","5.0.7.0","win","10:27:55",12,"HCPrac",2,"likert_prac_hc",3,"white_background_prac_hc","+","scenes/hot_cold_prac03.jpg","4",3787
"493","5.0.7.0","win","10:27:55",12,"HCPrac",2,"likert_prac_hc",4,"white_background_prac_hc","+","scenes/hot_cold_prac04.jpg","1",1625
"494","5.0.7.0","win","10:27:55",12,"HC",3,"beginning_B1_hc_trial",1,"images/block1_inst.png","0","0","57",2507
"495","5.0.7.0","win","10:27:55",12,"HC",3,"reminder_hc_trial",2,"images/hot_cold_scale_reminder.jpg","0","0","57",5628
"496","5.0.7.0","win","10:27:55",12,"HC",3,"likert_hc",3,"white_background_main_hc","+","scenes/forest_053.jpg","1",2258
"497","5.0.7.0","win","10:27:55",12,"HC",3,"likert_hc",4,"white_background_main_hc","+","scenes/city_063.jpg","1",590
"498","5.0.7.0","win","10:27:55",12,"HC",3,"likert_hc",5,"white_background_main_hc","+","scenes/city_117.jpg","2",1284
"499","5.0.7.0","win","10:27:55",12,"HC",3,"likert_hc",6,"white_background_main_hc","+","scenes/forest_044.jpg","1",1591
"500","5.0.7.0","win","10:27:55",12,"HC",3,"likert_hc",7,"white_background_main_hc","+","scenes/forest_045.jpg","3",1205
"501","5.0.7.0","win","10:27:55",12,"HC",3,"likert_hc",8,"white_background_main_hc","+","scenes/forest_056.jpg","1",1474
"502","5.0.7.0","win","10:27:55",12,"HC",3,"likert_hc",9,"white_background_main_hc","+","scenes/city_070.jpg","1",581
"503","5.0.7.0","win","10:27:55",12,"HC",3,"likert_hc",10,"white_background_main_hc","+","scenes/station_055.jpg","1",1115
"504","5.0.7.0","win","10:27:55",12,"HC",3,"likert_hc",11,"white_background_main_hc","+","scenes/beach_080.jpg","1",1500
"505","5.0.7.0","win","10:27:55",12,"HC",3,"likert_hc",12,"white_background_main_hc","+","scenes/forest_050.jpg","1",1238
"506","5.0.7.0","win","10:27:55",12,"HC",3,"likert_hc",13,"white_background_main_hc","+","scenes/city_102.jpg","2",2249
"507","5.0.7.0","win","10:27:55",12,"HC",3,"likert_hc",14,"white_background_main_hc","+","scenes/forest_042.jpg","1",950
"508","5.0.7.0","win","10:27:55",12,"HC",3,"likert_hc",15,"white_background_main_hc","+","scenes/forest_014.jpg","3",1621
"509","5.0.7.0","win","10:27:55",12,"HC",3,"likert_hc",16,"white_background_main_hc","+","scenes/city_018.jpg","3",1634
"510","5.0.7.0","win","10:27:55",12,"HC",3,"likert_hc",17,"white_background_main_hc","+","scenes/city_032.jpg","3",1599
"511","5.0.7.0","win","10:27:55",12,"HC",3,"likert_hc",18,"white_background_main_hc","+","scenes/forest_043.jpg","1",980
"512","5.0.7.0","win","10:27:55",12,"HC",3,"likert_hc",19,"white_background_main_hc","+","scenes/beach_002.jpg","4",2650
"513","5.0.7.0","win","10:27:55",12,"HC",3,"likert_hc",20,"white_background_main_hc","+","scenes/city_075.jpg","1",1190
"514","5.0.7.0","win","10:27:55",12,"HC",3,"likert_hc",21,"white_background_main_hc","+","scenes/station_102.jpg","3",1532
"515","5.0.7.0","win","10:27:55",12,"HC",3,"likert_hc",22,"white_background_main_hc","+","scenes/beach_130.jpg","4",1525
"516","5.0.7.0","win","10:27:55",12,"HC",3,"likert_hc",23,"white_background_main_hc","+","scenes/beach_067.jpg","1",1806
"517","5.0.7.0","win","10:27:55",12,"HC",3,"likert_hc",24,"white_background_main_hc","+","scenes/beach_044.jpg","2",2987
"518","5.0.7.0","win","10:27:55",12,"HC",3,"likert_hc",25,"white_background_main_hc","+","scenes/beach_077.jpg","1",2714
"519","5.0.7.0","win","10:27:55",12,"HC",3,"likert_hc",26,"white_background_main_hc","+","scenes/station_113.jpg","1",2116
"520","5.0.7.0","win","10:27:55",12,"HC",3,"likert_hc",27,"white_background_main_hc","+","scenes/beach_137.jpg","2",1468
"521","5.0.7.0","win","10:27:55",12,"HC",3,"likert_hc",28,"white_background_main_hc","+","scenes/beach_101.jpg","3",1599
"522","5.0.7.0","win","10:27:55",12,"HC",3,"likert_hc",29,"white_background_main_hc","+","scenes/station_103.jpg","4",1109
"523","5.0.7.0","win","10:27:55",12,"HC",3,"likert_hc",30,"white_background_main_hc","+","scenes/station_025.jpg","4",2110
"524","5.0.7.0","win","10:27:55",12,"HC",3,"likert_hc",31,"white_background_main_hc","+","scenes/forest_118.jpg","3",1743
"525","5.0.7.0","win","10:27:55",12,"HC",3,"likert_hc",32,"white_background_main_hc","+","scenes/forest_072.jpg","1",887
"526","5.0.7.0","win","10:27:55",12,"HC",3,"likert_hc",33,"white_background_main_hc","+","scenes/station_010.jpg","3",1761
"527","5.0.7.0","win","10:27:55",12,"HC",3,"likert_hc",34,"white_background_main_hc","+","scenes/beach_050.jpg","1",1120
"528","5.0.7.0","win","10:27:55",12,"HC",3,"beginning_B2_hc_trial",35,"images/block2_inst.jpg","0","0","57",3507
"529","5.0.7.0","win","10:27:55",12,"HC",3,"reminder_hc_trial",36,"images/hot_cold_scale_reminder.jpg","0","0","57",2516
"530","5.0.7.0","win","10:27:55",12,"HC",3,"likert_hc",37,"white_background_main_hc","+","scenes/station_056.jpg","1",1429
"531","5.0.7.0","win","10:27:55",12,"HC",3,"likert_hc",38,"white_background_main_hc","+","scenes/city_059.jpg","1",561
"532","5.0.7.0","win","10:27:55",12,"HC",3,"likert_hc",39,"white_background_main_hc","+","scenes/station_029.jpg","3",2855
"533","5.0.7.0","win","10:27:55",12,"HC",3,"likert_hc",40,"white_background_main_hc","+","scenes/station_023.jpg","4",1532
"534","5.0.7.0","win","10:27:55",12,"HC",3,"likert_hc",41,"white_background_main_hc","+","scenes/city_029.jpg","4",1900
"535","5.0.7.0","win","10:27:55",12,"HC",3,"likert_hc",42,"white_background_main_hc","+","scenes/station_101.jpg","3",1686
"536","5.0.7.0","win","10:27:55",12,"HC",3,"likert_hc",43,"white_background_main_hc","+","scenes/beach_057.jpg","1",1136
"537","5.0.7.0","win","10:27:55",12,"HC",3,"likert_hc",44,"white_background_main_hc","+","scenes/station_072.jpg","1",856
"538","5.0.7.0","win","10:27:55",12,"HC",3,"likert_hc",45,"white_background_main_hc","+","scenes/forest_102.jpg","1",620
"539","5.0.7.0","win","10:27:55",12,"HC",3,"likert_hc",46,"white_background_main_hc","+","scenes/city_023.jpg","4",1641
"540","5.0.7.0","win","10:27:55",12,"HC",3,"likert_hc",47,"white_background_main_hc","+","scenes/city_020.jpg","5",2661
"541","5.0.7.0","win","10:27:55",12,"HC",3,"likert_hc",48,"white_background_main_hc","+","scenes/city_016.jpg","4",3960
"542","5.0.7.0","win","10:27:55",12,"HC",3,"likert_hc",49,"white_background_main_hc","+","scenes/station_030.jpg","3",1511
"543","5.0.7.0","win","10:27:55",12,"HC",3,"likert_hc",50,"white_background_main_hc","+","scenes/beach_049.jpg","1",857
"544","5.0.7.0","win","10:27:55",12,"HC",3,"likert_hc",51,"white_background_main_hc","+","scenes/beach_133.jpg","4",2036
"545","5.0.7.0","win","10:27:55",12,"HC",3,"likert_hc",52,"white_background_main_hc","+","scenes/forest_039.jpg","3",2648
"546","5.0.7.0","win","10:27:55",12,"HC",3,"likert_hc",53,"white_background_main_hc","+","scenes/forest_107.jpg","3",1373
"547","5.0.7.0","win","10:27:55",12,"HC",3,"likert_hc",54,"white_background_main_hc","+","scenes/forest_113.jpg","4",1324
"548","5.0.7.0","win","10:27:55",12,"HC",3,"likert_hc",55,"white_background_main_hc","+","scenes/beach_132.jpg","3",1236
"549","5.0.7.0","win","10:27:55",12,"HC",3,"likert_hc",56,"white_background_main_hc","+","scenes/station_034.jpg","1",960
"550","5.0.7.0","win","10:27:55",12,"HC",3,"likert_hc",57,"white_background_main_hc","+","scenes/city_073.jpg","1",944
"551","5.0.7.0","win","10:27:55",12,"HC",3,"likert_hc",58,"white_background_main_hc","+","scenes/city_062.jpg","1",895
"552","5.0.7.0","win","10:27:55",12,"HC",3,"likert_hc",59,"white_background_main_hc","+","scenes/forest_015.jpg","4",1480
"553","5.0.7.0","win","10:27:55",12,"HC",3,"likert_hc",60,"white_background_main_hc","+","scenes/station_108.jpg","1",2130
"554","5.0.7.0","win","10:27:55",12,"HC",3,"likert_hc",61,"white_background_main_hc","+","scenes/city_025.jpg","4",2019
"555","5.0.7.0","win","10:27:55",12,"HC",3,"likert_hc",62,"white_background_main_hc","+","scenes/beach_051.jpg","2",2688
"556","5.0.7.0","win","10:27:55",12,"HC",3,"likert_hc",63,"white_background_main_hc","+","scenes/forest_031.jpg","4",1498
"557","5.0.7.0","win","10:27:55",12,"HC",3,"likert_hc",64,"white_background_main_hc","+","scenes/beach_131.jpg","3",2732
"558","5.0.7.0","win","10:27:55",12,"HC",3,"likert_hc",65,"white_background_main_hc","+","scenes/station_062.jpg","1",1205
"559","5.0.7.0","win","10:27:55",12,"HC",3,"likert_hc",66,"white_background_main_hc","+","scenes/city_019.jpg","4",1226
"560","5.0.7.0","win","10:27:55",12,"HC",3,"likert_hc",67,"white_background_main_hc","+","scenes/station_064.jpg","1",1639
"561","5.0.7.0","win","10:27:55",12,"HC",3,"likert_hc",68,"white_background_main_hc","+","scenes/beach_134.jpg","3",1356
"562","5.0.7.0","win","10:27:55",12,"NQPrac",5,"likert_nq_prac",1,"white_background_prac_nq","+","scenes/noisy_quiet_prac01.jpg","4",1548
"563","5.0.7.0","win","10:27:55",12,"NQPrac",5,"likert_nq_prac",2,"white_background_prac_nq","+","scenes/noisy_quiet_prac02.jpg","1",3747
"564","5.0.7.0","win","10:27:55",12,"NQPrac",5,"likert_nq_prac",3,"white_background_prac_nq","+","scenes/noisy_quiet_prac03.jpg","2",1123
"565","5.0.7.0","win","10:27:55",12,"NQPrac",5,"likert_nq_prac",4,"white_background_prac_nq","+","scenes/noisy_quiet_prac04.jpg","3",2212
"566","5.0.7.0","win","10:27:55",12,"NQPrac",5,"likert_nq_prac",5,"white_background_prac_nq","+","scenes/noisy_quiet_prac05.jpg","3",1409
"567","5.0.7.0","win","10:27:55",12,"NQPrac",5,"likert_nq_prac",6,"white_background_prac_nq","+","scenes/noisy_quiet_prac06.jpg","2",1399
"568","5.0.7.0","win","10:27:55",12,"NQ",6,"beginning_B1_nq_trial",1,"images/block1_inst.png","0","0","57",2034
"569","5.0.7.0","win","10:27:55",12,"NQ",6,"reminder_nq_trial",2,"images/noisy_quiet_scale_reminder_cut.jpg","Press enter to start the experiment","0","57",4038
"570","5.0.7.0","win","10:27:55",12,"NQ",6,"likert_nq",3,"white_background_main_nq","+","scenes/city_019.jpg","2",1835
"571","5.0.7.0","win","10:27:55",12,"NQ",6,"likert_nq",4,"white_background_main_nq","+","scenes/station_034.jpg","3",2567
"572","5.0.7.0","win","10:27:55",12,"NQ",6,"likert_nq",5,"white_background_main_nq","+","scenes/city_016.jpg","3",1055
"573","5.0.7.0","win","10:27:55",12,"NQ",6,"likert_nq",6,"white_background_main_nq","+","scenes/station_101.jpg","1",3610
"574","5.0.7.0","win","10:27:55",12,"NQ",6,"likert_nq",7,"white_background_main_nq","+","scenes/beach_137.jpg","3",976
"575","5.0.7.0","win","10:27:55",12,"NQ",6,"likert_nq",8,"white_background_main_nq","+","scenes/forest_056.jpg","2",1207
"576","5.0.7.0","win","10:27:55",12,"NQ",6,"likert_nq",9,"white_background_main_nq","+","scenes/beach_077.jpg","2",1525
"577","5.0.7.0","win","10:27:55",12,"NQ",6,"likert_nq",10,"white_background_main_nq","+","scenes/station_064.jpg","2",1109
"578","5.0.7.0","win","10:27:55",12,"NQ",6,"likert_nq",11,"white_background_main_nq","+","scenes/city_059.jpg","2",1575
"579","5.0.7.0","win","10:27:55",12,"NQ",6,"likert_nq",12,"white_background_main_nq","+","scenes/forest_015.jpg","2",1334
"580","5.0.7.0","win","10:27:55",12,"NQ",6,"likert_nq",13,"white_background_main_nq","+","scenes/beach_049.jpg","2",1310
"581","5.0.7.0","win","10:27:55",12,"NQ",6,"likert_nq",14,"white_background_main_nq","+","scenes/forest_072.jpg","1",1080
"582","5.0.7.0","win","10:27:55",12,"NQ",6,"likert_nq",15,"white_background_main_nq","+","scenes/beach_067.jpg","1",2546
"583","5.0.7.0","win","10:27:55",12,"NQ",6,"likert_nq",16,"white_background_main_nq","+","scenes/city_102.jpg","3",2001
"584","5.0.7.0","win","10:27:55",12,"NQ",6,"likert_nq",17,"white_background_main_nq","+","scenes/beach_002.jpg","4",1224
"585","5.0.7.0","win","10:27:55",12,"NQ",6,"likert_nq",18,"white_background_main_nq","+","scenes/station_055.jpg","2",1132
"586","5.0.7.0","win","10:27:55",12,"NQ",6,"likert_nq",19,"white_background_main_nq","+","scenes/beach_133.jpg","3",2348
"587","5.0.7.0","win","10:27:55",12,"NQ",6,"likert_nq",20,"white_background_main_nq","+","scenes/station_023.jpg","2",1909
"588","5.0.7.0","win","10:27:55",12,"NQ",6,"likert_nq",21,"white_background_main_nq","+","scenes/beach_080.jpg","2",646
"589","5.0.7.0","win","10:27:55",12,"NQ",6,"likert_nq",22,"white_background_main_nq","+","scenes/beach_044.jpg","3",1226
"590","5.0.7.0","win","10:27:55",12,"NQ",6,"likert_nq",23,"white_background_main_nq","+","scenes/city_025.jpg","3",1190
"591","5.0.7.0","win","10:27:55",12,"NQ",6,"likert_nq",24,"white_background_main_nq","+","scenes/city_032.jpg","2",1861
"592","5.0.7.0","win","10:27:55",12,"NQ",6,"likert_nq",25,"white_background_main_nq","+","scenes/city_018.jpg","3",1224
"593","5.0.7.0","win","10:27:55",12,"NQ",6,"likert_nq",26,"white_background_main_nq","+","scenes/station_010.jpg","3",2357
"594","5.0.7.0","win","10:27:55",12,"NQ",6,"likert_nq",27,"white_background_main_nq","+","scenes/beach_130.jpg","2",3109
"595","5.0.7.0","win","10:27:55",12,"NQ",6,"likert_nq",28,"white_background_main_nq","+","scenes/forest_113.jpg","2",951
"596","5.0.7.0","win","10:27:55",12,"NQ",6,"likert_nq",29,"white_background_main_nq","+","scenes/station_102.jpg","2",1126
"597","5.0.7.0","win","10:27:55",12,"NQ",6,"likert_nq",30,"white_background_main_nq","+","scenes/station_029.jpg","3",1599
"598","5.0.7.0","win","10:27:55",12,"NQ",6,"likert_nq",31,"white_background_main_nq","+","scenes/beach_057.jpg","2",1581
"599","5.0.7.0","win","10:27:55",12,"NQ",6,"likert_nq",32,"white_background_main_nq","+","scenes/forest_102.jpg","1",1363
"600","5.0.7.0","win","10:27:55",12,"NQ",6,"likert_nq",33,"white_background_main_nq","+","scenes/city_020.jpg","3",1210
"601","5.0.7.0","win","10:27:55",12,"NQ",6,"likert_nq",34,"white_background_main_nq","+","scenes/city_029.jpg","2",992
"602","5.0.7.0","win","10:27:55",12,"NQ",6,"beginning_B2_nq_trial",35,"images/block2_inst.jpg","0","0","57",2632
"603","5.0.7.0","win","10:27:55",12,"NQ",6,"reminder_nq_trial",36,"images/noisy_quiet_scale_reminder_cut.jpg","Press enter to start the experiment","0","57",1435
"604","5.0.7.0","win","10:27:55",12,"NQ",6,"likert_nq",37,"white_background_main_nq","+","scenes/forest_045.jpg","3",2456
"605","5.0.7.0","win","10:27:55",12,"NQ",6,"likert_nq",38,"white_background_main_nq","+","scenes/station_113.jpg","2",684
"606","5.0.7.0","win","10:27:55",12,"NQ",6,"likert_nq",39,"white_background_main_nq","+","scenes/forest_043.jpg","1",822
"607","5.0.7.0","win","10:27:55",12,"NQ",6,"likert_nq",40,"white_background_main_nq","+","scenes/station_108.jpg","2",2314
"608","5.0.7.0","win","10:27:55",12,"NQ",6,"likert_nq",41,"white_background_main_nq","+","scenes/city_075.jpg","2",1540
"609","5.0.7.0","win","10:27:55",12,"NQ",6,"likert_nq",42,"white_background_main_nq","+","scenes/city_073.jpg","2",1060
"610","5.0.7.0","win","10:27:55",12,"NQ",6,"likert_nq",43,"white_background_main_nq","+","scenes/beach_131.jpg","1",1687
"611","5.0.7.0","win","10:27:55",12,"NQ",6,"likert_nq",44,"white_background_main_nq","+","scenes/forest_050.jpg","1",1050
"612","5.0.7.0","win","10:27:55",12,"NQ",6,"likert_nq",45,"white_background_main_nq","+","scenes/beach_101.jpg","1",853
"613","5.0.7.0","win","10:27:55",12,"NQ",6,"likert_nq",46,"white_background_main_nq","+","scenes/beach_050.jpg","2",3273
"614","5.0.7.0","win","10:27:55",12,"NQ",6,"likert_nq",47,"white_background_main_nq","+","scenes/forest_107.jpg","2",1020
"615","5.0.7.0","win","10:27:55",12,"NQ",6,"likert_nq",48,"white_background_main_nq","+","scenes/station_030.jpg","3",1193
"616","5.0.7.0","win","10:27:55",12,"NQ",6,"likert_nq",49,"white_background_main_nq","+","scenes/station_103.jpg","1",1887
"617","5.0.7.0","win","10:27:55",12,"NQ",6,"likert_nq",50,"white_background_main_nq","+","scenes/city_063.jpg","4",2281
"618","5.0.7.0","win","10:27:55",12,"NQ",6,"likert_nq",51,"white_background_main_nq","+","scenes/forest_031.jpg","1",1220
"619","5.0.7.0","win","10:27:55",12,"NQ",6,"likert_nq",52,"white_background_main_nq","+","scenes/forest_053.jpg","1",729
"620","5.0.7.0","win","10:27:55",12,"NQ",6,"likert_nq",53,"white_background_main_nq","+","scenes/city_070.jpg","2",1409
"621","5.0.7.0","win","10:27:55",12,"NQ",6,"likert_nq",54,"white_background_main_nq","+","scenes/station_062.jpg","3",1247
"622","5.0.7.0","win","10:27:55",12,"NQ",6,"likert_nq",55,"white_background_main_nq","+","scenes/forest_014.jpg","2",1626
"623","5.0.7.0","win","10:27:55",12,"NQ",6,"likert_nq",56,"white_background_main_nq","+","scenes/city_062.jpg","3",3047
"624","5.0.7.0","win","10:27:55",12,"NQ",6,"likert_nq",57,"white_background_main_nq","+","scenes/forest_039.jpg","1",1403
"625","5.0.7.0","win","10:27:55",12,"NQ",6,"likert_nq",58,"white_background_main_nq","+","scenes/station_072.jpg","3",1872
"626","5.0.7.0","win","10:27:55",12,"NQ",6,"likert_nq",59,"white_background_main_nq","+","scenes/station_025.jpg","2",1915
"627","5.0.7.0","win","10:27:55",12,"NQ",6,"likert_nq",60,"white_background_main_nq","+","scenes/station_056.jpg","2",1549
"628","5.0.7.0","win","10:27:55",12,"NQ",6,"likert_nq",61,"white_background_main_nq","+","scenes/beach_134.jpg","2",1204
"629","5.0.7.0","win","10:27:55",12,"NQ",6,"likert_nq",62,"white_background_main_nq","+","scenes/forest_042.jpg","1",1594
"630","5.0.7.0","win","10:27:55",12,"NQ",6,"likert_nq",63,"white_background_main_nq","+","scenes/forest_044.jpg","1",2560
"631","5.0.7.0","win","10:27:55",12,"NQ",6,"likert_nq",64,"white_background_main_nq","+","scenes/beach_132.jpg","2",1440
"632","5.0.7.0","win","10:27:55",12,"NQ",6,"likert_nq",65,"white_background_main_nq","+","scenes/city_023.jpg","3",1508
"633","5.0.7.0","win","10:27:55",12,"NQ",6,"likert_nq",66,"white_background_main_nq","+","scenes/beach_051.jpg","2",982
"634","5.0.7.0","win","10:27:55",12,"NQ",6,"likert_nq",67,"white_background_main_nq","+","scenes/forest_118.jpg","1",1308
"635","5.0.7.0","win","10:27:55",12,"NQ",6,"likert_nq",68,"white_background_main_nq","+","scenes/city_117.jpg","4",1182
"636","5.0.7.0","win","10:27:55",12,"demo_block",7,"age",1,"0","0","0","56",9104
"637","5.0.7.0","win","10:27:55",12,"demo_block",7,"education",1,"0","0","0","masters degree",9104
"638","5.0.7.0","win","10:27:55",12,"demo_block",7,"left_right_handed",1,"0","0","0","right",9104
"639","5.0.7.0","win","10:27:55",12,"demo_block",7,"raceoption1",2,"0","0","0","0",14014
"640","5.0.7.0","win","10:27:55",12,"demo_block",7,"raceoption2",2,"0","0","0","",14014
"641","5.0.7.0","win","10:27:55",12,"demo_block",7,"raceoption3",2,"0","0","0","",14014
"642","5.0.7.0","win","10:27:55",12,"demo_block",7,"raceoption4",2,"0","0","0","",14014
"643","5.0.7.0","win","10:27:55",12,"demo_block",7,"raceoption5",2,"0","0","0","",14014
"644","5.0.7.0","win","10:27:55",12,"demo_block",7,"raceoption6",2,"0","0","0","",14014
"645","5.0.7.0","win","10:27:55",12,"demo_block",7,"raceoption7",2,"0","0","0","",14014
"646","5.0.7.0","win","10:27:55",12,"demo_block",7,"raceoption8",2,"0","0","0","",14014
"647","5.0.7.0","win","10:27:55",12,"demo_block",7,"raceoption9",2,"0","0","0","",14014
"648","5.0.7.0","win","10:27:55",12,"demo_block",7,"raceother",2,"0","0","0","",14014
"649","5.0.7.0","win","10:27:55",12,"demo_block",7,"raceother",2,"0","0","0","",14014
"650","5.0.7.0","win","10:27:55",12,"demo_block",7,"english_language",2,"0","0","0","Yes",14014
"651","5.0.7.0","win","10:27:55",12,"demo_block",7,"english_languageother",2,"0","0","0","",14014
"652","5.0.7.0","win","10:27:55",12,"demo_block",7,"worker_id",2,"0","0","0","ARPBS72HUCKD4",14014
"653","5.0.7.0","win","07:43:32",17,"HCPrac",2,"likert_prac_hc",1,"white_background_prac_hc","+","scenes/hot_cold_prac01.jpg","3",5568
"654","5.0.7.0","win","07:43:32",17,"HCPrac",2,"likert_prac_hc",2,"white_background_prac_hc","+","scenes/hot_cold_prac02.jpg","1",1422
"655","5.0.7.0","win","07:43:32",17,"HCPrac",2,"likert_prac_hc",3,"white_background_prac_hc","+","scenes/hot_cold_prac03.jpg","3",4110
"656","5.0.7.0","win","07:43:32",17,"HCPrac",2,"likert_prac_hc",4,"white_background_prac_hc","+","scenes/hot_cold_prac04.jpg","1",1789
"657","5.0.7.0","win","07:43:32",17,"HC",3,"beginning_B1_hc_trial",1,"images/block1_inst.png","0","0","57",1794
"658","5.0.7.0","win","07:43:32",17,"HC",3,"reminder_hc_trial",2,"images/hot_cold_scale_reminder.jpg","0","0","57",7538
"659","5.0.7.0","win","07:43:32",17,"HC",3,"likert_hc",3,"white_background_main_hc","+","scenes/forest_113.jpg","3",1245
"660","5.0.7.0","win","07:43:32",17,"HC",3,"likert_hc",4,"white_background_main_hc","+","scenes/forest_056.jpg","1",884
"661","5.0.7.0","win","07:43:32",17,"HC",3,"likert_hc",5,"white_background_main_hc","+","scenes/station_113.jpg","1",683
"662","5.0.7.0","win","07:43:32",17,"HC",3,"likert_hc",6,"white_background_main_hc","+","scenes/station_072.jpg","1",525
"663","5.0.7.0","win","07:43:32",17,"HC",3,"likert_hc",7,"white_background_main_hc","+","scenes/beach_080.jpg","1",472
"664","5.0.7.0","win","07:43:32",17,"HC",3,"likert_hc",8,"white_background_main_hc","+","scenes/city_019.jpg","3",1993
"665","5.0.7.0","win","07:43:32",17,"HC",3,"likert_hc",9,"white_background_main_hc","+","scenes/station_108.jpg","1",1055
"666","5.0.7.0","win","07:43:32",17,"HC",3,"likert_hc",10,"white_background_main_hc","+","scenes/city_062.jpg","1",686
"667","5.0.7.0","win","07:43:32",17,"HC",3,"likert_hc",11,"white_background_main_hc","+","scenes/city_102.jpg","1",724
"668","5.0.7.0","win","07:43:32",17,"HC",3,"likert_hc",12,"white_background_main_hc","+","scenes/forest_043.jpg","1",481
"669","5.0.7.0","win","07:43:32",17,"HC",3,"likert_hc",13,"white_background_main_hc","+","scenes/station_064.jpg","1",506
"670","5.0.7.0","win","07:43:32",17,"HC",3,"likert_hc",14,"white_background_main_hc","+","scenes/station_010.jpg","3",1327
"671","5.0.7.0","win","07:43:32",17,"HC",3,"likert_hc",15,"white_background_main_hc","+","scenes/city_032.jpg","3",1044
"672","5.0.7.0","win","07:43:32",17,"HC",3,"likert_hc",16,"white_background_main_hc","+","scenes/station_023.jpg","3",1037
"673","5.0.7.0","win","07:43:32",17,"HC",3,"likert_hc",17,"white_background_main_hc","+","scenes/city_070.jpg","1",675
"674","5.0.7.0","win","07:43:32",17,"HC",3,"likert_hc",18,"white_background_main_hc","+","scenes/beach_051.jpg","1",755
"675","5.0.7.0","win","07:43:32",17,"HC",3,"likert_hc",19,"white_background_main_hc","+","scenes/city_059.jpg","1",596
"676","5.0.7.0","win","07:43:32",17,"HC",3,"likert_hc",20,"white_background_main_hc","+","scenes/beach_134.jpg","3",1478
"677","5.0.7.0","win","07:43:32",17,"HC",3,"likert_hc",21,"white_background_main_hc","+","scenes/station_030.jpg","3",881
"678","5.0.7.0","win","07:43:32",17,"HC",3,"likert_hc",22,"white_background_main_hc","+","scenes/city_025.jpg","3",747
"679","5.0.7.0","win","07:43:32",17,"HC",3,"likert_hc",23,"white_background_main_hc","+","scenes/city_117.jpg","2",2112
"680","5.0.7.0","win","07:43:32",17,"HC",3,"likert_hc",24,"white_background_main_hc","+","scenes/city_029.jpg","3",1406
"681","5.0.7.0","win","07:43:32",17,"HC",3,"likert_hc",25,"white_background_main_hc","+","scenes/city_075.jpg","1",809
"682","5.0.7.0","win","07:43:32",17,"HC",3,"likert_hc",26,"white_background_main_hc","+","scenes/forest_053.jpg","1",489
"683","5.0.7.0","win","07:43:32",17,"HC",3,"likert_hc",27,"white_background_main_hc","+","scenes/station_103.jpg","3",924
"684","5.0.7.0","win","07:43:32",17,"HC",3,"likert_hc",28,"white_background_main_hc","+","scenes/station_101.jpg","3",1034
"685","5.0.7.0","win","07:43:32",17,"HC",3,"likert_hc",29,"white_background_main_hc","+","scenes/city_063.jpg","1",914
"686","5.0.7.0","win","07:43:32",17,"HC",3,"likert_hc",30,"white_background_main_hc","+","scenes/forest_031.jpg","3",939
"687","5.0.7.0","win","07:43:32",17,"HC",3,"likert_hc",31,"white_background_main_hc","+","scenes/forest_050.jpg","1",786
"688","5.0.7.0","win","07:43:32",17,"HC",3,"likert_hc",32,"white_background_main_hc","+","scenes/city_016.jpg","3",2972
"689","5.0.7.0","win","07:43:32",17,"HC",3,"likert_hc",33,"white_background_main_hc","+","scenes/beach_133.jpg","3",945
"690","5.0.7.0","win","07:43:32",17,"HC",3,"likert_hc",34,"white_background_main_hc","+","scenes/beach_067.jpg","1",691
"691","5.0.7.0","win","07:43:32",17,"HC",3,"beginning_B2_hc_trial",35,"images/block2_inst.jpg","0","0","57",2639
"692","5.0.7.0","win","07:43:32",17,"HC",3,"reminder_hc_trial",36,"images/hot_cold_scale_reminder.jpg","0","0","57",171
"693","5.0.7.0","win","07:43:32",17,"HC",3,"likert_hc",37,"white_background_main_hc","+","scenes/beach_057.jpg","1",853
"694","5.0.7.0","win","07:43:32",17,"HC",3,"likert_hc",38,"white_background_main_hc","+","scenes/station_056.jpg","1",461
"695","5.0.7.0","win","07:43:32",17,"HC",3,"likert_hc",39,"white_background_main_hc","+","scenes/forest_042.jpg","1",534
"696","5.0.7.0","win","07:43:32",17,"HC",3,"likert_hc",40,"white_background_main_hc","+","scenes/forest_118.jpg","3",984
"697","5.0.7.0","win","07:43:32",17,"HC",3,"likert_hc",41,"white_background_main_hc","+","scenes/station_102.jpg","3",567
"698","5.0.7.0","win","07:43:32",17,"HC",3,"likert_hc",42,"white_background_main_hc","+","scenes/station_034.jpg","1",576
"699","5.0.7.0","win","07:43:32",17,"HC",3,"likert_hc",43,"white_background_main_hc","+","scenes/beach_002.jpg","2",1067
"700","5.0.7.0","win","07:43:32",17,"HC",3,"likert_hc",44,"white_background_main_hc","+","scenes/forest_015.jpg","3",1143
"701","5.0.7.0","win","07:43:32",17,"HC",3,"likert_hc",45,"white_background_main_hc","+","scenes/city_023.jpg","3",489
"702","5.0.7.0","win","07:43:32",17,"HC",3,"likert_hc",46,"white_background_main_hc","+","scenes/beach_132.jpg","3",1446
"703","5.0.7.0","win","07:43:32",17,"HC",3,"likert_hc",47,"white_background_main_hc","+","scenes/beach_131.jpg","3",2195
"704","5.0.7.0","win","07:43:32",17,"HC",3,"likert_hc",48,"white_background_main_hc","+","scenes/forest_072.jpg","1",1064
"705","5.0.7.0","win","07:43:32",17,"HC",3,"likert_hc",49,"white_background_main_hc","+","scenes/station_029.jpg","3",2121
"706","5.0.7.0","win","07:43:32",17,"HC",3,"likert_hc",50,"white_background_main_hc","+","scenes/station_025.jpg","3",1371
"707","5.0.7.0","win","07:43:32",17,"HC",3,"likert_hc",51,"white_background_main_hc","+","scenes/forest_045.jpg","3",514
"708","5.0.7.0","win","07:43:32",17,"HC",3,"likert_hc",52,"white_background_main_hc","+","scenes/beach_050.jpg","1",744
"709","5.0.7.0","win","07:43:32",17,"HC",3,"likert_hc",53,"white_background_main_hc","+","scenes/beach_077.jpg","1",458
"710","5.0.7.0","win","07:43:32",17,"HC",3,"likert_hc",54,"white_background_main_hc","+","scenes/city_018.jpg","3",1012
"711","5.0.7.0","win","07:43:32",17,"HC",3,"likert_hc",55,"white_background_main_hc","+","scenes/station_055.jpg","1",615
"712","5.0.7.0","win","07:43:32",17,"HC",3,"likert_hc",56,"white_background_main_hc","+","scenes/beach_130.jpg","3",679
"713","5.0.7.0","win","07:43:32",17,"HC",3,"likert_hc",57,"white_background_main_hc","+","scenes/forest_102.jpg","1",1652
"714","5.0.7.0","win","07:43:32",17,"HC",3,"likert_hc",58,"white_background_main_hc","+","scenes/beach_101.jpg","3",714
"715","5.0.7.0","win","07:43:32",17,"HC",3,"likert_hc",59,"white_background_main_hc","+","scenes/beach_137.jpg","2",1805
"716","5.0.7.0","win","07:43:32",17,"HC",3,"likert_hc",60,"white_background_main_hc","+","scenes/station_062.jpg","1",663
"717","5.0.7.0","win","07:43:32",17,"HC",3,"likert_hc",61,"white_background_main_hc","+","scenes/city_020.jpg","4",3578
"718","5.0.7.0","win","07:43:32",17,"HC",3,"likert_hc",62,"white_background_main_hc","+","scenes/beach_044.jpg","3",2571
"719","5.0.7.0","win","07:43:32",17,"HC",3,"likert_hc",63,"white_background_main_hc","+","scenes/forest_014.jpg","3",702
"720","5.0.7.0","win","07:43:32",17,"HC",3,"likert_hc",64,"white_background_main_hc","+","scenes/forest_039.jpg","2",3931
"721","5.0.7.0","win","07:43:32",17,"HC",3,"likert_hc",65,"white_background_main_hc","+","scenes/forest_107.jpg","3",1591
"722","5.0.7.0","win","07:43:32",17,"HC",3,"likert_hc",66,"white_background_main_hc","+","scenes/city_073.jpg","1",670
"723","5.0.7.0","win","07:43:32",17,"HC",3,"likert_hc",67,"white_background_main_hc","+","scenes/beach_049.jpg","1",891
"724","5.0.7.0","win","07:43:32",17,"HC",3,"likert_hc",68,"white_background_main_hc","+","scenes/forest_044.jpg","2",911
"725","5.0.7.0","win","07:43:32",17,"NQPrac",5,"likert_nq_prac",1,"white_background_prac_nq","+","scenes/noisy_quiet_prac01.jpg","5",2714
"726","5.0.7.0","win","07:43:32",17,"NQPrac",5,"likert_nq_prac",2,"white_background_prac_nq","+","scenes/noisy_quiet_prac02.jpg","2",2965
"727","5.0.7.0","win","07:43:32",17,"NQPrac",5,"likert_nq_prac",3,"white_background_prac_nq","+","scenes/noisy_quiet_prac03.jpg","3",5267
"728","5.0.7.0","win","07:43:32",17,"NQPrac",5,"likert_nq_prac",4,"white_background_prac_nq","+","scenes/noisy_quiet_prac04.jpg","3",1446
"729","5.0.7.0","win","07:43:32",17,"NQPrac",5,"likert_nq_prac",5,"white_background_prac_nq","+","scenes/noisy_quiet_prac05.jpg","4",1855
"730","5.0.7.0","win","07:43:32",17,"NQPrac",5,"likert_nq_prac",6,"white_background_prac_nq","+","scenes/noisy_quiet_prac06.jpg","2",1790
"731","5.0.7.0","win","07:43:32",17,"NQ",6,"beginning_B1_nq_trial",1,"images/block1_inst.png","0","0","57",1537
"732","5.0.7.0","win","07:43:32",17,"NQ",6,"reminder_nq_trial",2,"images/noisy_quiet_scale_reminder_cut.jpg","Press enter to start the experiment","0","57",1434
"733","5.0.7.0","win","07:43:32",17,"NQ",6,"likert_nq",3,"white_background_main_nq","+","scenes/beach_049.jpg","2",4175
"734","5.0.7.0","win","07:43:32",17,"NQ",6,"likert_nq",4,"white_background_main_nq","+","scenes/forest_056.jpg","4",2827
"735","5.0.7.0","win","07:43:32",17,"NQ",6,"likert_nq",5,"white_background_main_nq","+","scenes/forest_042.jpg","2",3533
"736","5.0.7.0","win","07:43:32",17,"NQ",6,"likert_nq",6,"white_background_main_nq","+","scenes/forest_039.jpg","1",890
"737","5.0.7.0","win","07:43:32",17,"NQ",6,"likert_nq",7,"white_background_main_nq","+","scenes/forest_031.jpg","2",2371
"738","5.0.7.0","win","07:43:32",17,"NQ",6,"likert_nq",8,"white_background_main_nq","+","scenes/beach_057.jpg","3",1289
"739","5.0.7.0","win","07:43:32",17,"NQ",6,"likert_nq",9,"white_background_main_nq","+","scenes/forest_045.jpg","3",730
"740","5.0.7.0","win","07:43:32",17,"NQ",6,"likert_nq",10,"white_background_main_nq","+","scenes/city_025.jpg","2",1147
"741","5.0.7.0","win","07:43:32",17,"NQ",6,"likert_nq",11,"white_background_main_nq","+","scenes/station_030.jpg","2",2141
"742","5.0.7.0","win","07:43:32",17,"NQ",6,"likert_nq",12,"white_background_main_nq","+","scenes/forest_044.jpg","3",2145
"743","5.0.7.0","win","07:43:32",17,"NQ",6,"likert_nq",13,"white_background_main_nq","+","scenes/city_063.jpg","2",2155
"744","5.0.7.0","win","07:43:32",17,"NQ",6,"likert_nq",14,"white_background_main_nq","+","scenes/beach_044.jpg","3",2987
"745","5.0.7.0","win","07:43:32",17,"NQ",6,"likert_nq",15,"white_background_main_nq","+","scenes/beach_134.jpg","2",1306
"746","5.0.7.0","win","07:43:32",17,"NQ",6,"likert_nq",16,"white_background_main_nq","+","scenes/forest_107.jpg","2",652
"747","5.0.7.0","win","07:43:32",17,"NQ",6,"likert_nq",17,"white_background_main_nq","+","scenes/forest_050.jpg","2",1648
"748","5.0.7.0","win","07:43:32",17,"NQ",6,"likert_nq",18,"white_background_main_nq","+","scenes/beach_080.jpg","2",692
"749","5.0.7.0","win","07:43:32",17,"NQ",6,"likert_nq",19,"white_background_main_nq","+","scenes/beach_050.jpg","2",719
"750","5.0.7.0","win","07:43:32",17,"NQ",6,"likert_nq",20,"white_background_main_nq","+","scenes/city_059.jpg","2",1913
"751","5.0.7.0","win","07:43:32",17,"NQ",6,"likert_nq",21,"white_background_main_nq","+","scenes/city_018.jpg","2",552
"752","5.0.7.0","win","07:43:32",17,"NQ",6,"likert_nq",22,"white_background_main_nq","+","scenes/station_102.jpg","1",1449
"753","5.0.7.0","win","07:43:32",17,"NQ",6,"likert_nq",23,"white_background_main_nq","+","scenes/station_055.jpg","1",934
"754","5.0.7.0","win","07:43:32",17,"NQ",6,"likert_nq",24,"white_background_main_nq","+","scenes/forest_043.jpg","2",608
"755","5.0.7.0","win","07:43:32",17,"NQ",6,"likert_nq",25,"white_background_main_nq","+","scenes/beach_131.jpg","2",911
"756","5.0.7.0","win","07:43:32",17,"NQ",6,"likert_nq",26,"white_background_main_nq","+","scenes/beach_067.jpg","2",1103
"757","5.0.7.0","win","07:43:32",17,"NQ",6,"likert_nq",27,"white_background_main_nq","+","scenes/forest_053.jpg","3",1138
"758","5.0.7.0","win","07:43:32",17,"NQ",6,"likert_nq",28,"white_background_main_nq","+","scenes/station_101.jpg","1",1536
"759","5.0.7.0","win","07:43:32",17,"NQ",6,"likert_nq",29,"white_background_main_nq","+","scenes/station_072.jpg","2",1218
"760","5.0.7.0","win","07:43:32",17,"NQ",6,"likert_nq",30,"white_background_main_nq","+","scenes/forest_102.jpg","2",2092
"761","5.0.7.0","win","07:43:32",17,"NQ",6,"likert_nq",31,"white_background_main_nq","+","scenes/forest_113.jpg","3",1606
"762","5.0.7.0","win","07:43:32",17,"NQ",6,"likert_nq",32,"white_background_main_nq","+","scenes/station_029.jpg","2",2556
"763","5.0.7.0","win","07:43:32",17,"NQ",6,"likert_nq",33,"white_background_main_nq","+","scenes/forest_015.jpg","3",899
"764","5.0.7.0","win","07:43:32",17,"NQ",6,"likert_nq",34,"white_background_main_nq","+","scenes/city_023.jpg","1",902
"765","5.0.7.0","win","07:43:32",17,"NQ",6,"beginning_B2_nq_trial",35,"images/block2_inst.jpg","0","0","57",1297
"766","5.0.7.0","win","07:43:32",17,"NQ",6,"reminder_nq_trial",36,"images/noisy_quiet_scale_reminder_cut.jpg","Press enter to start the experiment","0","57",5965
"767","5.0.7.0","win","07:43:32",17,"NQ",6,"likert_nq",37,"white_background_main_nq","+","scenes/station_034.jpg","2",986
"768","5.0.7.0","win","07:43:32",17,"NQ",6,"likert_nq",38,"white_background_main_nq","+","scenes/city_102.jpg","2",635
"769","5.0.7.0","win","07:43:32",17,"NQ",6,"likert_nq",39,"white_background_main_nq","+","scenes/beach_101.jpg","3",1465
"770","5.0.7.0","win","07:43:32",17,"NQ",6,"likert_nq",40,"white_background_main_nq","+","scenes/city_029.jpg","2",924
"771","5.0.7.0","win","07:43:32",17,"NQ",6,"likert_nq",41,"white_background_main_nq","+","scenes/city_075.jpg","2",822
"772","5.0.7.0","win","07:43:32",17,"NQ",6,"likert_nq",42,"white_background_main_nq","+","scenes/station_062.jpg","2",696
"773","5.0.7.0","win","07:43:32",17,"NQ",6,"likert_nq",43,"white_background_main_nq","+","scenes/station_064.jpg","2",1781
"774","5.0.7.0","win","07:43:32",17,"NQ",6,"likert_nq",44,"white_background_main_nq","+","scenes/station_113.jpg","1",824
"775","5.0.7.0","win","07:43:32",17,"NQ",6,"likert_nq",45,"white_background_main_nq","+","scenes/city_019.jpg","1",1961
"776","5.0.7.0","win","07:43:32",17,"NQ",6,"likert_nq",46,"white_background_main_nq","+","scenes/beach_133.jpg","3",1290
"777","5.0.7.0","win","07:43:32",17,"NQ",6,"likert_nq",47,"white_background_main_nq","+","scenes/forest_118.jpg","3",684
"778","5.0.7.0","win","07:43:32",17,"NQ",6,"likert_nq",48,"white_background_main_nq","+","scenes/city_020.jpg","3",439
"779","5.0.7.0","win","07:43:32",17,"NQ",6,"likert_nq",49,"white_background_main_nq","+","scenes/beach_132.jpg","2",941
"780","5.0.7.0","win","07:43:32",17,"NQ",6,"likert_nq",50,"white_background_main_nq","+","scenes/station_025.jpg","2",756
"781","5.0.7.0","win","07:43:32",17,"NQ",6,"likert_nq",51,"white_background_main_nq","+","scenes/station_103.jpg","2",558
"782","5.0.7.0","win","07:43:32",17,"NQ",6,"likert_nq",52,"white_background_main_nq","+","scenes/city_073.jpg","2",1030
"783","5.0.7.0","win","07:43:32",17,"NQ",6,"likert_nq",53,"white_background_main_nq","+","scenes/station_108.jpg","2",865
"784","5.0.7.0","win","07:43:32",17,"NQ",6,"likert_nq",54,"white_background_main_nq","+","scenes/city_016.jpg","3",1555
"785","5.0.7.0","win","07:43:32",17,"NQ",6,"likert_nq",55,"white_background_main_nq","+","scenes/station_010.jpg","3",475
"786","5.0.7.0","win","07:43:32",17,"NQ",6,"likert_nq",56,"white_background_main_nq","+","scenes/station_056.jpg","2",1638
"787","5.0.7.0","win","07:43:32",17,"NQ",6,"likert_nq",57,"white_background_main_nq","+","scenes/beach_002.jpg","3",953
"788","5.0.7.0","win","07:43:32",17,"NQ",6,"likert_nq",58,"white_background_main_nq","+","scenes/city_062.jpg","3",2266
"789","5.0.7.0","win","07:43:32",17,"NQ",6,"likert_nq",59,"white_background_main_nq","+","scenes/forest_014.jpg","3",1246
"790","5.0.7.0","win","07:43:32",17,"NQ",6,"likert_nq",60,"white_background_main_nq","+","scenes/beach_077.jpg","3",1779
"791","5.0.7.0","win","07:43:32",17,"NQ",6,"likert_nq",61,"white_background_main_nq","+","scenes/city_117.jpg","3",559
"792","5.0.7.0","win","07:43:32",17,"NQ",6,"likert_nq",62,"white_background_main_nq","+","scenes/beach_130.jpg","5",541
"793","5.0.7.0","win","07:43:32",17,"NQ",6,"likert_nq",63,"white_background_main_nq","+","scenes/forest_072.jpg","2",2454
"794","5.0.7.0","win","07:43:32",17,"NQ",6,"likert_nq",64,"white_background_main_nq","+","scenes/beach_051.jpg","3",848
"795","5.0.7.0","win","07:43:32",17,"NQ",6,"likert_nq",65,"white_background_main_nq","+","scenes/beach_137.jpg","3",430
"796","5.0.7.0","win","07:43:32",17,"NQ",6,"likert_nq",66,"white_background_main_nq","+","scenes/station_023.jpg","1",2454
"797","5.0.7.0","win","07:43:32",17,"NQ",6,"likert_nq",67,"white_background_main_nq","+","scenes/city_070.jpg","2",1286
"798","5.0.7.0","win","07:43:32",17,"NQ",6,"likert_nq",68,"white_background_main_nq","+","scenes/city_032.jpg","2",504
"799","5.0.7.0","win","07:43:32",17,"demo_block",7,"age",1,"0","0","0","45",8655
"800","5.0.7.0","win","07:43:32",17,"demo_block",7,"education",1,"0","0","0","other advanced degree",8655
"801","5.0.7.0","win","07:43:32",17,"demo_block",7,"left_right_handed",1,"0","0","0","right",8655
"802","5.0.7.0","win","07:43:32",17,"demo_block",7,"raceoption1",2,"0","0","0","",88851
"803","5.0.7.0","win","07:43:32",17,"demo_block",7,"raceoption2",2,"0","0","0","",88851
"804","5.0.7.0","win","07:43:32",17,"demo_block",7,"raceoption3",2,"0","0","0","",88851
"805","5.0.7.0","win","07:43:32",17,"demo_block",7,"raceoption4",2,"0","0","0","",88851
"806","5.0.7.0","win","07:43:32",17,"demo_block",7,"raceoption5",2,"0","0","0","",88851
"807","5.0.7.0","win","07:43:32",17,"demo_block",7,"raceoption6",2,"0","0","0","",88851
"808","5.0.7.0","win","07:43:32",17,"demo_block",7,"raceoption7",2,"0","0","0","6",88851
"809","5.0.7.0","win","07:43:32",17,"demo_block",7,"raceoption8",2,"0","0","0","",88851
"810","5.0.7.0","win","07:43:32",17,"demo_block",7,"raceoption9",2,"0","0","0","",88851
"811","5.0.7.0","win","07:43:32",17,"demo_block",7,"raceother",2,"0","0","0","",88851
"812","5.0.7.0","win","07:43:32",17,"demo_block",7,"raceother",2,"0","0","0","",88851
"813","5.0.7.0","win","07:43:32",17,"demo_block",7,"english_language",2,"0","0","0","Yes",88851
"814","5.0.7.0","win","07:43:32",17,"demo_block",7,"english_languageother",2,"0","0","0","",88851
"815","5.0.7.0","win","07:43:32",17,"demo_block",7,"worker_id",2,"0","0","0","",88851
"816","5.0.7.0","win","10:50:59",22,"HCPrac",2,"likert_prac_hc",1,"white_background_prac_hc","+","scenes/hot_cold_prac01.jpg","3",2039
"817","5.0.7.0","win","10:50:59",22,"HCPrac",2,"likert_prac_hc",2,"white_background_prac_hc","+","scenes/hot_cold_prac02.jpg","1",1704
"818","5.0.7.0","win","10:50:59",22,"HCPrac",2,"likert_prac_hc",3,"white_background_prac_hc","+","scenes/hot_cold_prac03.jpg","5",4954
"819","5.0.7.0","win","10:50:59",22,"HCPrac",2,"likert_prac_hc",4,"white_background_prac_hc","+","scenes/hot_cold_prac04.jpg","1",873
"820","5.0.7.0","win","10:50:59",22,"HC",3,"beginning_B1_hc_trial",1,"images/block1_inst.png","0","0","57",3499
"821","5.0.7.0","win","10:50:59",22,"HC",3,"reminder_hc_trial",2,"images/hot_cold_scale_reminder.jpg","0","0","57",299
"822","5.0.7.0","win","10:50:59",22,"HC",3,"likert_hc",3,"white_background_main_hc","+","scenes/station_103.jpg","3",1582
"823","5.0.7.0","win","10:50:59",22,"HC",3,"likert_hc",4,"white_background_main_hc","+","scenes/beach_101.jpg","4",2960
"824","5.0.7.0","win","10:50:59",22,"HC",3,"likert_hc",5,"white_background_main_hc","+","scenes/beach_067.jpg","1",1859
"825","5.0.7.0","win","10:50:59",22,"HC",3,"likert_hc",6,"white_background_main_hc","+","scenes/forest_102.jpg","1",1672
"826","5.0.7.0","win","10:50:59",22,"HC",3,"likert_hc",7,"white_background_main_hc","+","scenes/beach_131.jpg","4",1999
"827","5.0.7.0","win","10:50:59",22,"HC",3,"likert_hc",8,"white_background_main_hc","+","scenes/forest_043.jpg","1",919
"828","5.0.7.0","win","10:50:59",22,"HC",3,"likert_hc",9,"white_background_main_hc","+","scenes/station_056.jpg","1",574
"829","5.0.7.0","win","10:50:59",22,"HC",3,"likert_hc",10,"white_background_main_hc","+","scenes/beach_002.jpg","5",1226
"830","5.0.7.0","win","10:50:59",22,"HC",3,"likert_hc",11,"white_background_main_hc","+","scenes/beach_137.jpg","2",1428
"831","5.0.7.0","win","10:50:59",22,"HC",3,"likert_hc",12,"white_background_main_hc","+","scenes/city_020.jpg","4",1893
"832","5.0.7.0","win","10:50:59",22,"HC",3,"likert_hc",13,"white_background_main_hc","+","scenes/city_070.jpg","1",4329
"833","5.0.7.0","win","10:50:59",22,"HC",3,"likert_hc",14,"white_background_main_hc","+","scenes/forest_014.jpg","3",3215
"834","5.0.7.0","win","10:50:59",22,"HC",3,"likert_hc",15,"white_background_main_hc","+","scenes/station_062.jpg","1",1389
"835","5.0.7.0","win","10:50:59",22,"HC",3,"likert_hc",16,"white_background_main_hc","+","scenes/station_023.jpg","3",1134
"836","5.0.7.0","win","10:50:59",22,"HC",3,"likert_hc",17,"white_background_main_hc","+","scenes/city_018.jpg","3",2580
"837","5.0.7.0","win","10:50:59",22,"HC",3,"likert_hc",18,"white_background_main_hc","+","scenes/forest_039.jpg","3",942
"838","5.0.7.0","win","10:50:59",22,"HC",3,"likert_hc",19,"white_background_main_hc","+","scenes/beach_044.jpg","4",1705
"839","5.0.7.0","win","10:50:59",22,"HC",3,"likert_hc",20,"white_background_main_hc","+","scenes/city_029.jpg","3",1062
"840","5.0.7.0","win","10:50:59",22,"HC",3,"likert_hc",21,"white_background_main_hc","+","scenes/city_062.jpg","2",3919
"841","5.0.7.0","win","10:50:59",22,"HC",3,"likert_hc",22,"white_background_main_hc","+","scenes/station_101.jpg","3",727
"842","5.0.7.0","win","10:50:59",22,"HC",3,"likert_hc",23,"white_background_main_hc","+","scenes/forest_044.jpg","2",1477
"843","5.0.7.0","win","10:50:59",22,"HC",3,"likert_hc",24,"white_background_main_hc","+","scenes/forest_053.jpg","1",627
